trial,shape_path,context_1_path,context_2_path,trial_variant,response,rt,fixation_onset_ttl,context1_onset_ttl,shape_onset_ttl,object_question_onset_ttl,context2_onset_ttl,shape2_onset_ttl,object_question2_onset_ttl,question_onset_ttl,response_ttl
1,/Users/mehtaka/Desktop/Columbia/Nuttida_Lab/Utah/ContextCategorizationTask/STIMULI/shapes/ball_slope.bmp,/Users/mehtaka/Desktop/Columbia/Nuttida_Lab/Utah/ContextCategorizationTask/STIMULI/contexts/mountain1.png,/Users/mehtaka/Desktop/Columbia/Nuttida_Lab/Utah/ContextCategorizationTask/STIMULI/contexts/sportsfield1.png,secondary_first_img1,SPORTSFIELD,0.6578,1777774237.295386791,1777774238.254649162,1777774239.261229038,1777774240.272104979,1777774242.302350998,1777774243.336624146,1777774244.348715067,1777774246.401262999,1777774247.112061977
2,/Users/mehtaka/Desktop/Columbia/Nuttida_Lab/Utah/ContextCategorizationTask/STIMULI/shapes/toothbrush.bmp,/Users/mehtaka/Desktop/Columbia/Nuttida_Lab/Utah/ContextCategorizationTask/STIMULI/contexts/bathroom.png,/Users/mehtaka/Desktop/Columbia/Nuttida_Lab/Utah/ContextCategorizationTask/STIMULI/contexts/garden.png,primary_first_img0,GARDEN,2.0578,1777774247.617224932,1777774248.481157780,1777774249.487938166,1777774250.499048948,1777774252.517788887,1777774253.552496910,1777774254.559397936,1777774256.599096060,1777774258.686548948
3,/Users/mehtaka/Desktop/Columbia/Nuttida_Lab/Utah/ContextCategorizationTask/STIMULI/shapes/basketball.bmp,/Users/mehtaka/Desktop/Columbia/Nuttida_Lab/Utah/ContextCategorizationTask/STIMULI/contexts/kitchen1.png,/Users/mehtaka/Desktop/Columbia/Nuttida_Lab/Utah/ContextCategorizationTask/STIMULI/contexts/sportsfield1.png,secondary_first_img1,KITCHEN,0.6131,1777774259.199282885,1777774259.951781988,1777774260.956855059,1777774261.990695000,1777774264.012490034,1777774265.052749157,1777774266.069421053,1777774268.110874176,1777774268.757225037
4,/Users/mehtaka/Desktop/Columbia/Nuttida_Lab/Utah/ContextCategorizationTask/STIMULI/shapes/nail_cutters.bmp,/Users/mehtaka/Desktop/Columbia/Nuttida_Lab/Utah/ContextCategorizationTask/STIMULI/contexts/office1.png,/Users/mehtaka/Desktop/Columbia/Nuttida_Lab/Utah/ContextCategorizationTask/STIMULI/contexts/bathroom1.png,secondary_first_img1,OFFICE,0.8237,1777774269.264147043,1777774270.107022047,1777774271.111879826,1777774272.118458033,1777774274.130096912,1777774275.175464869,1777774276.185496092,1777774278.222229958,1777774279.057632923
5,/Users/mehtaka/Desktop/Columbia/Nuttida_Lab/Utah/ContextCategorizationTask/STIMULI/shapes/bird'sfoot.bmp,/Users/mehtaka/Desktop/Columbia/Nuttida_Lab/Utah/ContextCategorizationTask/STIMULI/contexts/kitchen1.png,/Users/mehtaka/Desktop/Columbia/Nuttida_Lab/Utah/ContextCategorizationTask/STIMULI/contexts/petshop1.png,secondary_first_img1,KITCHEN,0.8328,1777774279.564310074,1777774280.308415890,1777774281.316210985,1777774282.323215008,1777774284.332083941,1777774285.382511139,1777774286.390936136,1777774288.424681902,1777774289.280708075
6,/Users/mehtaka/Desktop/Columbia/Nuttida_Lab/Utah/ContextCategorizationTask/STIMULI/shapes/tape.bmp,/Users/mehtaka/Desktop/Columbia/Nuttida_Lab/Utah/ContextCategorizationTask/STIMULI/contexts/sportsfield1.png,/Users/mehtaka/Desktop/Columbia/Nuttida_Lab/Utah/ContextCategorizationTask/STIMULI/contexts/office1.png,secondary_first_img1,OFFICE,2.2082,1777774289.787151814,1777774290.415467978,1777774291.420387983,1777774292.488048077,1777774294.503267050,1777774295.548782110,1777774296.560045004,1777774298.607793808,1777774300.838114023
7,/Users/mehtaka/Desktop/Columbia/Nuttida_Lab/Utah/ContextCategorizationTask/STIMULI/shapes/umbrella.bmp,/Users/mehtaka/Desktop/Columbia/Nuttida_Lab/Utah/ContextCategorizationTask/STIMULI/contexts/sky1.png,/Users/mehtaka/Desktop/Columbia/Nuttida_Lab/Utah/ContextCategorizationTask/STIMULI/contexts/kitchen1.png,primary_first_img1,KITCHEN,5.0424,1777774301.344784975,1777774302.069399118,1777774303.075041056,1777774304.082697868,1777774306.109687090,1777774307.150382996,1777774308.157373905,1777774310.215876102,1777774315.277707100
8,/Users/mehtaka/Desktop/Columbia/Nuttida_Lab/Utah/ContextCategorizationTask/STIMULI/shapes/tunnelentrance.bmp,/Users/mehtaka/Desktop/Columbia/Nuttida_Lab/Utah/ContextCategorizationTask/STIMULI/contexts/sportsfield1.png,/Users/mehtaka/Desktop/Columbia/Nuttida_Lab/Utah/ContextCategorizationTask/STIMULI/contexts/garden1.png,secondary_first_img1,SPORTSFIELD,4.6187,1777774315.784666061,1777774316.539573908,1777774317.549646139,1777774318.557884932,1777774320.569396973,1777774321.599808931,1777774322.612560987,1777774324.638901949,1777774329.277448893
9,/Users/mehtaka/Desktop/Columbia/Nuttida_Lab/Utah/ContextCategorizationTask/STIMULI/shapes/toiletpaper.bmp,/Users/mehtaka/Desktop/Columbia/Nuttida_Lab/Utah/ContextCategorizationTask/STIMULI/contexts/bathroom1.png,/Users/mehtaka/Desktop/Columbia/Nuttida_Lab/Utah/ContextCategorizationTask/STIMULI/contexts/office1.png,primary_first_img1,BATHROOM,1.4556,1777774329.790543795,1777774330.433747053,1777774331.438900948,1777774332.448489904,1777774334.462000847,1777774335.499242067,1777774336.509623051,1777774338.540510893,1777774340.020948887
10,/Users/mehtaka/Desktop/Columbia/Nuttida_Lab/Utah/ContextCategorizationTask/STIMULI/shapes/bikewheel.bmp,/Users/mehtaka/Desktop/Columbia/Nuttida_Lab/Utah/ContextCategorizationTask/STIMULI/contexts/kitchen1.png,/Users/mehtaka/Desktop/Columbia/Nuttida_Lab/Utah/ContextCategorizationTask/STIMULI/contexts/sportsfield1.png,secondary_first_img1,KITCHEN,0.9278,1777774340.529616833,1777774341.251922846,1777774342.258398056,1777774343.268599987,1777774345.274724007,1777774346.288929939,1777774347.295933962,1777774349.325686932,1777774350.272621155
11,/Users/mehtaka/Desktop/Columbia/Nuttida_Lab/Utah/ContextCategorizationTask/STIMULI/shapes/bug.bmp,/Users/mehtaka/Desktop/Columbia/Nuttida_Lab/Utah/ContextCategorizationTask/STIMULI/contexts/garden1.png,/Users/mehtaka/Desktop/Columbia/Nuttida_Lab/Utah/ContextCategorizationTask/STIMULI/contexts/sky1.png,primary_first_img1,SKY,1.2554,1777774350.784327030,1777774351.423775911,1777774352.429241180,1777774353.439146042,1777774355.449954987,1777774356.471713066,1777774357.481415987,1777774359.523540020,1777774360.799216032
12,/Users/mehtaka/Desktop/Columbia/Nuttida_Lab/Utah/ContextCategorizationTask/STIMULI/shapes/pan.bmp,/Users/mehtaka/Desktop/Columbia/Nuttida_Lab/Utah/ContextCategorizationTask/STIMULI/contexts/kitchen.png,/Users/mehtaka/Desktop/Columbia/Nuttida_Lab/Utah/ContextCategorizationTask/STIMULI/contexts/sportsfield.png,primary_first_img0,SPORTSFIELD,1.2607,1777774361.306452990,1777774362.164999962,1777774363.171050072,1777774364.182892084,1777774366.194379091,1777774367.227891922,1777774368.243795872,1777774370.287202120,1777774371.572890997
13,/Users/mehtaka/Desktop/Columbia/Nuttida_Lab/Utah/ContextCategorizationTask/STIMULI/shapes/mosquito.bmp,/Users/mehtaka/Desktop/Columbia/Nuttida_Lab/Utah/ContextCategorizationTask/STIMULI/contexts/office.png,/Users/mehtaka/Desktop/Columbia/Nuttida_Lab/Utah/ContextCategorizationTask/STIMULI/contexts/garden.png,secondary_first_img0,OFFICE,0.6886,1777774372.079716206,1777774372.821047068,1777774373.827161074,1777774374.838137150,1777774376.850718021,1777774377.899698973,1777774378.906367064,1777774380.944774866,1777774381.665230036
14,/Users/mehtaka/Desktop/Columbia/Nuttida_Lab/Utah/ContextCategorizationTask/STIMULI/shapes/birdcage.bmp,/Users/mehtaka/Desktop/Columbia/Nuttida_Lab/Utah/ContextCategorizationTask/STIMULI/contexts/sportsfield.png,/Users/mehtaka/Desktop/Columbia/Nuttida_Lab/Utah/ContextCategorizationTask/STIMULI/contexts/petshop.png,secondary_first_img0,SPORTSFIELD,0.6395,1777774382.171631098,1777774382.907195807,1777774383.913403988,1777774384.923215151,1777774386.932134867,1777774387.966693163,1777774388.977850914,1777774391.020253897,1777774391.676208019
15,/Users/mehtaka/Desktop/Columbia/Nuttida_Lab/Utah/ContextCategorizationTask/STIMULI/shapes/teacup.bmp,/Users/mehtaka/Desktop/Columbia/Nuttida_Lab/Utah/ContextCategorizationTask/STIMULI/contexts/kitchen.png,/Users/mehtaka/Desktop/Columbia/Nuttida_Lab/Utah/ContextCategorizationTask/STIMULI/contexts/office.png,primary_first_img0,OFFICE,1.5446,1777774392.186019182,1777774392.807920933,1777774393.812260151,1777774394.821908951,1777774396.832992077,1777774397.862875938,1777774398.873805046,1777774400.902597904,1777774402.464356184
16,/Users/mehtaka/Desktop/Columbia/Nuttida_Lab/Utah/ContextCategorizationTask/STIMULI/shapes/rugby.bmp,/Users/mehtaka/Desktop/Columbia/Nuttida_Lab/Utah/ContextCategorizationTask/STIMULI/contexts/garden.png,/Users/mehtaka/Desktop/Columbia/Nuttida_Lab/Utah/ContextCategorizationTask/STIMULI/contexts/sportsfield.png,secondary_first_img0,SPORTSFIELD,1.5623,1777774402.970339060,1777774403.621948957,1777774404.626305103,1777774405.634737015,1777774407.650474072,1777774408.677206993,1777774409.686318159,1777774411.740031958,1777774413.323282003
17,/Users/mehtaka/Desktop/Columbia/Nuttida_Lab/Utah/ContextCategorizationTask/STIMULI/shapes/ball_slope.bmp,/Users/mehtaka/Desktop/Columbia/Nuttida_Lab/Utah/ContextCategorizationTask/STIMULI/contexts/sportsfield.png,/Users/mehtaka/Desktop/Columbia/Nuttida_Lab/Utah/ContextCategorizationTask/STIMULI/contexts/mountain.png,primary_first_img0,SPORTSFIELD,1.2520,1777774418.936702967,1777774419.715583086,1777774420.726193905,1777774421.737437963,1777774423.748826027,1777774424.779186964,1777774425.789124012,1777774427.822422028,1777774429.094660044
18,/Users/mehtaka/Desktop/Columbia/Nuttida_Lab/Utah/ContextCategorizationTask/STIMULI/shapes/tape.bmp,/Users/mehtaka/Desktop/Columbia/Nuttida_Lab/Utah/ContextCategorizationTask/STIMULI/contexts/sportsfield.png,/Users/mehtaka/Desktop/Columbia/Nuttida_Lab/Utah/ContextCategorizationTask/STIMULI/contexts/office.png,secondary_first_img0,OFFICE,0.5768,1777774429.599606991,1777774430.228099108,1777774431.231161118,1777774432.305466175,1777774434.317399025,1777774435.338811874,1777774436.347583055,1777774438.391238928,1777774438.983637094
19,/Users/mehtaka/Desktop/Columbia/Nuttida_Lab/Utah/ContextCategorizationTask/STIMULI/shapes/bird'sfoot.bmp,/Users/mehtaka/Desktop/Columbia/Nuttida_Lab/Utah/ContextCategorizationTask/STIMULI/contexts/kitchen.png,/Users/mehtaka/Desktop/Columbia/Nuttida_Lab/Utah/ContextCategorizationTask/STIMULI/contexts/petshop.png,secondary_first_img0,PETSHOP,0.4525,1777774439.489919901,1777774440.144465923,1777774441.154034853,1777774442.161830902,1777774444.168861866,1777774445.211952209,1777774446.221843004,1777774448.252483130,1777774448.724600077
20,/Users/mehtaka/Desktop/Columbia/Nuttida_Lab/Utah/ContextCategorizationTask/STIMULI/shapes/tunnelentrance.bmp,/Users/mehtaka/Desktop/Columbia/Nuttida_Lab/Utah/ContextCategorizationTask/STIMULI/contexts/garden.png,/Users/mehtaka/Desktop/Columbia/Nuttida_Lab/Utah/ContextCategorizationTask/STIMULI/contexts/sportsfield.png,primary_first_img0,SPORTSFIELD,1.8795,1777774449.230880976,1777774449.873929024,1777774450.882333994,1777774451.893738985,1777774453.903633833,1777774454.929724932,1777774455.940809965,1777774457.971539974,1777774459.871281862
21,/Users/mehtaka/Desktop/Columbia/Nuttida_Lab/Utah/ContextCategorizationTask/STIMULI/shapes/umbrella.bmp,/Users/mehtaka/Desktop/Columbia/Nuttida_Lab/Utah/ContextCategorizationTask/STIMULI/contexts/kitchen1.png,/Users/mehtaka/Desktop/Columbia/Nuttida_Lab/Utah/ContextCategorizationTask/STIMULI/contexts/sky1.png,secondary_first_img1,SKY,0.5566,1777774460.376999855,1777774461.024485826,1777774462.035754919,1777774463.041398048,1777774465.050889969,1777774466.076146841,1777774467.088768005,1777774469.121404886,1777774469.705694914
22,/Users/mehtaka/Desktop/Columbia/Nuttida_Lab/Utah/ContextCategorizationTask/STIMULI/shapes/bikewheel.bmp,/Users/mehtaka/Desktop/Columbia/Nuttida_Lab/Utah/ContextCategorizationTask/STIMULI/contexts/sportsfield1.png,/Users/mehtaka/Desktop/Columbia/Nuttida_Lab/Utah/ContextCategorizationTask/STIMULI/contexts/kitchen1.png,primary_first_img1,KITCHEN,0.5089,1777774470.212636948,1777774470.857690096,1777774471.863157034,1777774472.873970032,1777774474.883965015,1777774475.921087980,1777774476.934561968,1777774478.967579842,1777774479.493952036
23,/Users/mehtaka/Desktop/Columbia/Nuttida_Lab/Utah/ContextCategorizationTask/STIMULI/shapes/toiletpaper.bmp,/Users/mehtaka/Desktop/Columbia/Nuttida_Lab/Utah/ContextCategorizationTask/STIMULI/contexts/bathroom.png,/Users/mehtaka/Desktop/Columbia/Nuttida_Lab/Utah/ContextCategorizationTask/STIMULI/contexts/office.png,primary_first_img0,OFFICE,0.9856,1777774480.000006914,1777774480.656363010,1777774481.662475109,1777774482.672922134,1777774484.683835983,1777774485.724176884,1777774486.733633995,1777774488.764634132,1777774489.765829086
24,/Users/mehtaka/Desktop/Columbia/Nuttida_Lab/Utah/ContextCategorizationTask/STIMULI/shapes/basketball.bmp,/Users/mehtaka/Desktop/Columbia/Nuttida_Lab/Utah/ContextCategorizationTask/STIMULI/contexts/sportsfield1.png,/Users/mehtaka/Desktop/Columbia/Nuttida_Lab/Utah/ContextCategorizationTask/STIMULI/contexts/kitchen1.png,primary_first_img1,KITCHEN,0.5287,1777774490.272130966,1777774490.912744045,1777774491.918789864,1777774492.933582067,1777774494.945467949,1777774495.973511934,1777774496.992330074,1777774499.033818007,1777774499.598938227
25,/Users/mehtaka/Desktop/Columbia/Nuttida_Lab/Utah/ContextCategorizationTask/STIMULI/shapes/toothbrush.bmp,/Users/mehtaka/Desktop/Columbia/Nuttida_Lab/Utah/ContextCategorizationTask/STIMULI/contexts/garden1.png,/Users/mehtaka/Desktop/Columbia/Nuttida_Lab/Utah/ContextCategorizationTask/STIMULI/contexts/bathroom1.png,secondary_first_img1,BATHROOM,0.8677,1777774500.108643055,1777774500.864045143,1777774501.870108843,1777774502.880313158,1777774504.892502069,1777774505.941711903,1777774506.952460051,1777774508.981659889,1777774509.862988949
26,/Users/mehtaka/Desktop/Columbia/Nuttida_Lab/Utah/ContextCategorizationTask/STIMULI/shapes/teacup.bmp,/Users/mehtaka/Desktop/Columbia/Nuttida_Lab/Utah/ContextCategorizationTask/STIMULI/contexts/office.png,/Users/mehtaka/Desktop/Columbia/Nuttida_Lab/Utah/ContextCategorizationTask/STIMULI/contexts/kitchen.png,secondary_first_img0,KITCHEN,3.7877,1777774510.376677036,1777774511.010025978,1777774512.015611887,1777774513.026171923,1777774515.040829897,1777774516.075604916,1777774517.098744154,1777774519.144535065,1777774522.999011993
27,/Users/mehtaka/Desktop/Columbia/Nuttida_Lab/Utah/ContextCategorizationTask/STIMULI/shapes/rugby.bmp,/Users/mehtaka/Desktop/Columbia/Nuttida_Lab/Utah/ContextCategorizationTask/STIMULI/contexts/sportsfield.png,/Users/mehtaka/Desktop/Columbia/Nuttida_Lab/Utah/ContextCategorizationTask/STIMULI/contexts/garden.png,primary_first_img0,GARDEN,0.5250,1777774523.504840851,1777774524.150728941,1777774525.155381918,1777774526.164705038,1777774528.175969124,1777774529.212464809,1777774530.222599030,1777774532.262699127,1777774532.809788942
28,/Users/mehtaka/Desktop/Columbia/Nuttida_Lab/Utah/ContextCategorizationTask/STIMULI/shapes/bug.bmp,/Users/mehtaka/Desktop/Columbia/Nuttida_Lab/Utah/ContextCategorizationTask/STIMULI/contexts/garden.png,/Users/mehtaka/Desktop/Columbia/Nuttida_Lab/Utah/ContextCategorizationTask/STIMULI/contexts/sky.png,primary_first_img0,SKY,0.8788,1777774533.315146923,1777774534.044748068,1777774535.054800987,1777774536.065366983,1777774538.076934814,1777774539.106109858,1777774540.116164207,1777774542.148633003,1777774543.054407835
29,/Users/mehtaka/Desktop/Columbia/Nuttida_Lab/Utah/ContextCategorizationTask/STIMULI/shapes/pan.bmp,/Users/mehtaka/Desktop/Columbia/Nuttida_Lab/Utah/ContextCategorizationTask/STIMULI/contexts/sportsfield.png,/Users/mehtaka/Desktop/Columbia/Nuttida_Lab/Utah/ContextCategorizationTask/STIMULI/contexts/kitchen.png,secondary_first_img0,SPORTSFIELD,0.5077,1777774543.560860872,1777774544.189363956,1777774545.193562984,1777774546.201891184,1777774548.218168974,1777774549.267409801,1777774550.276358843,1777774552.319591999,1777774552.859277010
30,/Users/mehtaka/Desktop/Columbia/Nuttida_Lab/Utah/ContextCategorizationTask/STIMULI/shapes/mosquito.bmp,/Users/mehtaka/Desktop/Columbia/Nuttida_Lab/Utah/ContextCategorizationTask/STIMULI/contexts/garden.png,/Users/mehtaka/Desktop/Columbia/Nuttida_Lab/Utah/ContextCategorizationTask/STIMULI/contexts/office.png,primary_first_img0,GARDEN,0.8010,1777774553.365206003,1777774553.996119976,1777774555.000854015,1777774556.013945103,1777774558.026970863,1777774559.059406996,1777774560.074777126,1777774562.180229187,1777774562.993973970
31,/Users/mehtaka/Desktop/Columbia/Nuttida_Lab/Utah/ContextCategorizationTask/STIMULI/shapes/birdcage.bmp,/Users/mehtaka/Desktop/Columbia/Nuttida_Lab/Utah/ContextCategorizationTask/STIMULI/contexts/petshop1.png,/Users/mehtaka/Desktop/Columbia/Nuttida_Lab/Utah/ContextCategorizationTask/STIMULI/contexts/sportsfield1.png,primary_first_img1,SPORTSFIELD,3.0095,1777774563.504751205,1777774564.120429993,1777774565.125581980,1777774566.134711027,1777774568.143790007,1777774569.161088943,1777774570.170191050,1777774572.196979046,1777774575.215459108
32,/Users/mehtaka/Desktop/Columbia/Nuttida_Lab/Utah/ContextCategorizationTask/STIMULI/shapes/tape.bmp,/Users/mehtaka/Desktop/Columbia/Nuttida_Lab/Utah/ContextCategorizationTask/STIMULI/contexts/office1.png,/Users/mehtaka/Desktop/Columbia/Nuttida_Lab/Utah/ContextCategorizationTask/STIMULI/contexts/sportsfield1.png,primary_first_img1,OFFICE,0.9586,1777774575.720594883,1777774576.339734077,1777774577.344552040,1777774578.355336905,1777774580.367162228,1777774581.389667988,1777774582.397691965,1777774584.423421860,1777774585.395464897
33,/Users/mehtaka/Desktop/Columbia/Nuttida_Lab/Utah/ContextCategorizationTask/STIMULI/shapes/bird'sfoot.bmp,/Users/mehtaka/Desktop/Columbia/Nuttida_Lab/Utah/ContextCategorizationTask/STIMULI/contexts/petshop.png,/Users/mehtaka/Desktop/Columbia/Nuttida_Lab/Utah/ContextCategorizationTask/STIMULI/contexts/kitchen.png,primary_first_img0,KITCHEN,1.1079,1777774587.603539944,1777774588.203423023,1777774589.208443880,1777774590.217813969,1777774592.226522207,1777774593.251908064,1777774594.261241198,1777774596.287581921,1777774597.417303085
34,/Users/mehtaka/Desktop/Columbia/Nuttida_Lab/Utah/ContextCategorizationTask/STIMULI/shapes/tunnelentrance.bmp,/Users/mehtaka/Desktop/Columbia/Nuttida_Lab/Utah/ContextCategorizationTask/STIMULI/contexts/sportsfield.png,/Users/mehtaka/Desktop/Columbia/Nuttida_Lab/Utah/ContextCategorizationTask/STIMULI/contexts/garden.png,secondary_first_img0,SPORTSFIELD,2.3108,1777774597.923141003,1777774598.554635048,1777774599.559256077,1777774600.570842981,1777774602.582292080,1777774603.603317022,1777774604.613864899,1777774606.648386955,1777774608.968720913
35,/Users/mehtaka/Desktop/Columbia/Nuttida_Lab/Utah/ContextCategorizationTask/STIMULI/shapes/nail_cutters.bmp,/Users/mehtaka/Desktop/Columbia/Nuttida_Lab/Utah/ContextCategorizationTask/STIMULI/contexts/office.png,/Users/mehtaka/Desktop/Columbia/Nuttida_Lab/Utah/ContextCategorizationTask/STIMULI/contexts/bathroom.png,secondary_first_img0,BATHROOM,1.9674,1777774609.480021000,1777774610.086649179,1777774611.091169119,1777774612.104501963,1777774614.117944002,1777774615.150489092,1777774616.162153006,1777774618.193166018,1777774620.181080103
36,/Users/mehtaka/Desktop/Columbia/Nuttida_Lab/Utah/ContextCategorizationTask/STIMULI/shapes/bikewheel.bmp,/Users/mehtaka/Desktop/Columbia/Nuttida_Lab/Utah/ContextCategorizationTask/STIMULI/contexts/sportsfield.png,/Users/mehtaka/Desktop/Columbia/Nuttida_Lab/Utah/ContextCategorizationTask/STIMULI/contexts/kitchen.png,primary_first_img0,KITCHEN,0.6710,1777774620.691325903,1777774621.340355158,1777774622.346400023,1777774623.357131958,1777774625.367400885,1777774626.397005081,1777774627.408628941,1777774629.436656952,1777774630.130059004
37,/Users/mehtaka/Desktop/Columbia/Nuttida_Lab/Utah/ContextCategorizationTask/STIMULI/shapes/toothbrush.bmp,/Users/mehtaka/Desktop/Columbia/Nuttida_Lab/Utah/ContextCategorizationTask/STIMULI/contexts/bathroom1.png,/Users/mehtaka/Desktop/Columbia/Nuttida_Lab/Utah/ContextCategorizationTask/STIMULI/contexts/garden1.png,primary_first_img1,GARDEN,1.1661,1777774630.636224031,1777774631.272691965,1777774632.277256966,1777774633.285235882,1777774635.297226906,1777774636.319509983,1777774637.328878164,1777774639.356314182,1777774640.540741205
38,/Users/mehtaka/Desktop/Columbia/Nuttida_Lab/Utah/ContextCategorizationTask/STIMULI/shapes/basketball.bmp,/Users/mehtaka/Desktop/Columbia/Nuttida_Lab/Utah/ContextCategorizationTask/STIMULI/contexts/sportsfield.png,/Users/mehtaka/Desktop/Columbia/Nuttida_Lab/Utah/ContextCategorizationTask/STIMULI/contexts/kitchen.png,primary_first_img0,KITCHEN,2.2255,1777774641.046143055,1777774641.698328972,1777774642.702789068,1777774643.713365078,1777774645.723717928,1777774646.765655041,1777774647.778299809,1777774649.813754082,1777774652.083567142
39,/Users/mehtaka/Desktop/Columbia/Nuttida_Lab/Utah/ContextCategorizationTask/STIMULI/shapes/rugby.bmp,/Users/mehtaka/Desktop/Columbia/Nuttida_Lab/Utah/ContextCategorizationTask/STIMULI/contexts/garden1.png,/Users/mehtaka/Desktop/Columbia/Nuttida_Lab/Utah/ContextCategorizationTask/STIMULI/contexts/sportsfield1.png,secondary_first_img1,SPORTSFIELD,3.9623,1777774652.590145111,1777774653.216320038,1777774654.220176935,1777774655.230661869,1777774657.242789030,1777774658.265978098,1777774659.275775909,1777774661.310909033,1777774665.287445068
40,/Users/mehtaka/Desktop/Columbia/Nuttida_Lab/Utah/ContextCategorizationTask/STIMULI/shapes/ball_slope.bmp,/Users/mehtaka/Desktop/Columbia/Nuttida_Lab/Utah/ContextCategorizationTask/STIMULI/contexts/sportsfield1.png,/Users/mehtaka/Desktop/Columbia/Nuttida_Lab/Utah/ContextCategorizationTask/STIMULI/contexts/mountain1.png,primary_first_img1,MOUNTAIN,4.0898,1777774665.793739080,1777774666.594370127,1777774667.600485086,1777774668.611902952,1777774670.624347925,1777774671.659049034,1777774672.674981117,1777774674.711907148,1777774678.821893215
41,/Users/mehtaka/Desktop/Columbia/Nuttida_Lab/Utah/ContextCategorizationTask/STIMULI/shapes/mosquito.bmp,/Users/mehtaka/Desktop/Columbia/Nuttida_Lab/Utah/ContextCategorizationTask/STIMULI/contexts/garden1.png,/Users/mehtaka/Desktop/Columbia/Nuttida_Lab/Utah/ContextCategorizationTask/STIMULI/contexts/office1.png,primary_first_img1,OFFICE,1.9397,1777774679.328257084,1777774679.977090120,1777774680.981482983,1777774681.993497133,1777774684.014501810,1777774685.060703039,1777774686.069859982,1777774688.107272863,1777774690.072257996
42,/Users/mehtaka/Desktop/Columbia/Nuttida_Lab/Utah/ContextCategorizationTask/STIMULI/shapes/umbrella.bmp,/Users/mehtaka/Desktop/Columbia/Nuttida_Lab/Utah/ContextCategorizationTask/STIMULI/contexts/sky.png,/Users/mehtaka/Desktop/Columbia/Nuttida_Lab/Utah/ContextCategorizationTask/STIMULI/contexts/kitchen.png,primary_first_img0,KITCHEN,2.9768,1777774690.579345942,1777774691.204878092,1777774692.210021019,1777774693.220520020,1777774695.233515024,1777774696.263081074,1777774697.274712086,1777774699.310757160,1777774702.307677031
43,/Users/mehtaka/Desktop/Columbia/Nuttida_Lab/Utah/ContextCategorizationTask/STIMULI/shapes/birdcage.bmp,/Users/mehtaka/Desktop/Columbia/Nuttida_Lab/Utah/ContextCategorizationTask/STIMULI/contexts/sportsfield1.png,/Users/mehtaka/Desktop/Columbia/Nuttida_Lab/Utah/ContextCategorizationTask/STIMULI/contexts/petshop1.png,secondary_first_img1,PETSHOP,5.5080,1777774702.814593077,1777774703.640009880,1777774704.645756960,1777774705.656740189,1777774707.676059961,1777774708.717786074,1777774709.725923061,1777774711.759639978,1777774717.284103870
44,/Users/mehtaka/Desktop/Columbia/Nuttida_Lab/Utah/ContextCategorizationTask/STIMULI/shapes/toiletpaper.bmp,/Users/mehtaka/Desktop/Columbia/Nuttida_Lab/Utah/ContextCategorizationTask/STIMULI/contexts/office1.png,/Users/mehtaka/Desktop/Columbia/Nuttida_Lab/Utah/ContextCategorizationTask/STIMULI/contexts/bathroom1.png,secondary_first_img1,BATHROOM,1.0517,1777774717.790805101,1777774718.445930958,1777774719.451869965,1777774720.460129023,1777774722.470959187,1777774723.504628897,1777774724.515460014,1777774726.555169106,1777774727.643115044
45,/Users/mehtaka/Desktop/Columbia/Nuttida_Lab/Utah/ContextCategorizationTask/STIMULI/shapes/pan.bmp,/Users/mehtaka/Desktop/Columbia/Nuttida_Lab/Utah/ContextCategorizationTask/STIMULI/contexts/sportsfield1.png,/Users/mehtaka/Desktop/Columbia/Nuttida_Lab/Utah/ContextCategorizationTask/STIMULI/contexts/kitchen1.png,secondary_first_img1,KITCHEN,4.3506,1777774728.151267052,1777774728.813705921,1777774729.817683935,1777774730.828918934,1777774732.855325937,1777774733.892012119,1777774734.900660038,1777774737.007077932,1777774741.372080088
46,/Users/mehtaka/Desktop/Columbia/Nuttida_Lab/Utah/ContextCategorizationTask/STIMULI/shapes/bug.bmp,/Users/mehtaka/Desktop/Columbia/Nuttida_Lab/Utah/ContextCategorizationTask/STIMULI/contexts/sky.png,/Users/mehtaka/Desktop/Columbia/Nuttida_Lab/Utah/ContextCategorizationTask/STIMULI/contexts/garden.png,secondary_first_img0,GARDEN,2.5973,1777774741.878515005,1777774742.508293152,1777774743.513718128,1777774744.521550179,1777774746.529730082,1777774747.546432018,1777774748.555346966,1777774750.578190088,1777774753.194463015
47,/Users/mehtaka/Desktop/Columbia/Nuttida_Lab/Utah/ContextCategorizationTask/STIMULI/shapes/nail_cutters.bmp,/Users/mehtaka/Desktop/Columbia/Nuttida_Lab/Utah/ContextCategorizationTask/STIMULI/contexts/bathroom1.png,/Users/mehtaka/Desktop/Columbia/Nuttida_Lab/Utah/ContextCategorizationTask/STIMULI/contexts/office1.png,primary_first_img1,OFFICE,2.6297,1777774753.699855089,1777774754.331266165,1777774755.337964058,1777774756.347434044,1777774758.362126112,1777774759.396606922,1777774760.405168056,1777774762.452502012,1777774765.106073141
48,/Users/mehtaka/Desktop/Columbia/Nuttida_Lab/Utah/ContextCategorizationTask/STIMULI/shapes/teacup.bmp,/Users/mehtaka/Desktop/Columbia/Nuttida_Lab/Utah/ContextCategorizationTask/STIMULI/contexts/office1.png,/Users/mehtaka/Desktop/Columbia/Nuttida_Lab/Utah/ContextCategorizationTask/STIMULI/contexts/kitchen1.png,secondary_first_img1,KITCHEN,0.9792,1777774765.799375057,1777774766.421365023,1777774767.426959753,1777774768.443746090,1777774770.457381964,1777774771.523360968,1777774772.533272982,1777774774.571471930,1777774775.575686932
49,/Users/mehtaka/Desktop/Columbia/Nuttida_Lab/Utah/ContextCategorizationTask/STIMULI/shapes/tunnelentrance.bmp,/Users/mehtaka/Desktop/Columbia/Nuttida_Lab/Utah/ContextCategorizationTask/STIMULI/contexts/garden1.png,/Users/mehtaka/Desktop/Columbia/Nuttida_Lab/Utah/ContextCategorizationTask/STIMULI/contexts/sportsfield1.png,primary_first_img1,SPORTSFIELD,8.7469,1777774784.498767138,1777774785.165288925,1777774786.170804977,1777774787.182743073,1777774789.218475103,1777774790.254281044,1777774791.270956993,1777774793.308997154,1777774802.089659929
50,/Users/mehtaka/Desktop/Columbia/Nuttida_Lab/Utah/ContextCategorizationTask/STIMULI/shapes/basketball.bmp,/Users/mehtaka/Desktop/Columbia/Nuttida_Lab/Utah/ContextCategorizationTask/STIMULI/contexts/kitchen.png,/Users/mehtaka/Desktop/Columbia/Nuttida_Lab/Utah/ContextCategorizationTask/STIMULI/contexts/sportsfield.png,secondary_first_img0,SPORTSFIELD,1.5193,1777774802.597074986,1777774803.357784033,1777774804.364696980,1777774805.381130934,1777774807.392517805,1777774808.425107956,1777774809.434328079,1777774811.476058960,1777774813.015313864
51,/Users/mehtaka/Desktop/Columbia/Nuttida_Lab/Utah/ContextCategorizationTask/STIMULI/shapes/toothbrush.bmp,/Users/mehtaka/Desktop/Columbia/Nuttida_Lab/Utah/ContextCategorizationTask/STIMULI/contexts/garden.png,/Users/mehtaka/Desktop/Columbia/Nuttida_Lab/Utah/ContextCategorizationTask/STIMULI/contexts/bathroom.png,secondary_first_img0,BATHROOM,1.3990,1777774813.524416924,1777774814.284659863,1777774815.290621042,1777774816.302798986,1777774818.324357986,1777774819.354727030,1777774820.367313862,1777774822.413964987,1777774823.826725960
52,/Users/mehtaka/Desktop/Columbia/Nuttida_Lab/Utah/ContextCategorizationTask/STIMULI/shapes/rugby.bmp,/Users/mehtaka/Desktop/Columbia/Nuttida_Lab/Utah/ContextCategorizationTask/STIMULI/contexts/sportsfield1.png,/Users/mehtaka/Desktop/Columbia/Nuttida_Lab/Utah/ContextCategorizationTask/STIMULI/contexts/garden1.png,primary_first_img1,SPORTSFIELD,1.5567,1777774824.339984894,1777774824.968055010,1777774825.973340988,1777774826.984220982,1777774828.994473934,1777774830.017069101,1777774831.028792143,1777774833.055243969,1777774834.634613991
53,/Users/mehtaka/Desktop/Columbia/Nuttida_Lab/Utah/ContextCategorizationTask/STIMULI/shapes/umbrella.bmp,/Users/mehtaka/Desktop/Columbia/Nuttida_Lab/Utah/ContextCategorizationTask/STIMULI/contexts/kitchen.png,/Users/mehtaka/Desktop/Columbia/Nuttida_Lab/Utah/ContextCategorizationTask/STIMULI/contexts/sky.png,secondary_first_img0,SKY,1.7582,1777774835.140243053,1777774835.786277771,1777774836.791258812,1777774837.800728083,1777774839.812208176,1777774840.839946032,1777774841.848390818,1777774843.883404016,1777774845.664122105
54,/Users/mehtaka/Desktop/Columbia/Nuttida_Lab/Utah/ContextCategorizationTask/STIMULI/shapes/tape.bmp,/Users/mehtaka/Desktop/Columbia/Nuttida_Lab/Utah/ContextCategorizationTask/STIMULI/contexts/office.png,/Users/mehtaka/Desktop/Columbia/Nuttida_Lab/Utah/ContextCategorizationTask/STIMULI/contexts/sportsfield.png,primary_first_img0,SPORTSFIELD,0.9568,1777774846.169703960,1777774846.930377960,1777774847.936261892,1777774848.943472147,1777774850.954596043,1777774851.990603924,1777774853.004498005,1777774855.036000013,1777774856.020658016
55,/Users/mehtaka/Desktop/Columbia/Nuttida_Lab/Utah/ContextCategorizationTask/STIMULI/shapes/bird'sfoot.bmp,/Users/mehtaka/Desktop/Columbia/Nuttida_Lab/Utah/ContextCategorizationTask/STIMULI/contexts/petshop1.png,/Users/mehtaka/Desktop/Columbia/Nuttida_Lab/Utah/ContextCategorizationTask/STIMULI/contexts/kitchen1.png,primary_first_img1,KITCHEN,1.1789,1777774856.529696941,1777774857.184694052,1777774858.190821886,1777774859.201664925,1777774861.215196848,1777774862.242351055,1777774863.252344131,1777774865.284218073,1777774866.484549999
56,/Users/mehtaka/Desktop/Columbia/Nuttida_Lab/Utah/ContextCategorizationTask/STIMULI/shapes/toiletpaper.bmp,/Users/mehtaka/Desktop/Columbia/Nuttida_Lab/Utah/ContextCategorizationTask/STIMULI/contexts/office.png,/Users/mehtaka/Desktop/Columbia/Nuttida_Lab/Utah/ContextCategorizationTask/STIMULI/contexts/bathroom.png,secondary_first_img0,BATHROOM,0.6522,1777774866.998509169,1777774867.630918980,1777774868.635619164,1777774869.646313906,1777774871.655963898,1777774872.695752859,1777774873.707721949,1777774875.746074915,1777774876.418706894
57,/Users/mehtaka/Desktop/Columbia/Nuttida_Lab/Utah/ContextCategorizationTask/STIMULI/shapes/bikewheel.bmp,/Users/mehtaka/Desktop/Columbia/Nuttida_Lab/Utah/ContextCategorizationTask/STIMULI/contexts/kitchen.png,/Users/mehtaka/Desktop/Columbia/Nuttida_Lab/Utah/ContextCategorizationTask/STIMULI/contexts/sportsfield.png,secondary_first_img0,SPORTSFIELD,7.9622,1777774876.930458784,1777774877.579220057,1777774878.585916996,1777774879.596926928,1777774881.606921911,1777774882.664602995,1777774883.676021099,1777774885.762248993,1777774893.739143848
58,/Users/mehtaka/Desktop/Columbia/Nuttida_Lab/Utah/ContextCategorizationTask/STIMULI/shapes/bug.bmp,/Users/mehtaka/Desktop/Columbia/Nuttida_Lab/Utah/ContextCategorizationTask/STIMULI/contexts/sky1.png,/Users/mehtaka/Desktop/Columbia/Nuttida_Lab/Utah/ContextCategorizationTask/STIMULI/contexts/garden1.png,secondary_first_img1,GARDEN,0.5341,1777774894.248113871,1777774895.408648968,1777774896.422935009,1777774897.429533958,1777774899.441840887,1777774900.476012945,1777774901.485936165,1777774903.520144939,1777774904.084089994
59,/Users/mehtaka/Desktop/Columbia/Nuttida_Lab/Utah/ContextCategorizationTask/STIMULI/shapes/ball_slope.bmp,/Users/mehtaka/Desktop/Columbia/Nuttida_Lab/Utah/ContextCategorizationTask/STIMULI/contexts/mountain.png,/Users/mehtaka/Desktop/Columbia/Nuttida_Lab/Utah/ContextCategorizationTask/STIMULI/contexts/sportsfield.png,secondary_first_img0,SPORTSFIELD,4.4542,1777774904.593153000,1777774905.377173901,1777774906.382256031,1777774907.391156912,1777774909.402489185,1777774910.436244965,1777774911.446405172,1777774913.493317127,1777774917.986959219
60,/Users/mehtaka/Desktop/Columbia/Nuttida_Lab/Utah/ContextCategorizationTask/STIMULI/shapes/nail_cutters.bmp,/Users/mehtaka/Desktop/Columbia/Nuttida_Lab/Utah/ContextCategorizationTask/STIMULI/contexts/bathroom.png,/Users/mehtaka/Desktop/Columbia/Nuttida_Lab/Utah/ContextCategorizationTask/STIMULI/contexts/office.png,primary_first_img0,OFFICE,1.7249,1777774918.495017052,1777774919.134158134,1777774920.139644861,1777774921.149669170,1777774923.159260988,1777774924.196314096,1777774925.207741022,1777774927.238296986,1777774928.980623960
61,/Users/mehtaka/Desktop/Columbia/Nuttida_Lab/Utah/ContextCategorizationTask/STIMULI/shapes/pan.bmp,/Users/mehtaka/Desktop/Columbia/Nuttida_Lab/Utah/ContextCategorizationTask/STIMULI/contexts/kitchen1.png,/Users/mehtaka/Desktop/Columbia/Nuttida_Lab/Utah/ContextCategorizationTask/STIMULI/contexts/sportsfield1.png,primary_first_img1,SPORTSFIELD,1.0635,1777774929.486672878,1777774930.109573841,1777774931.112699986,1777774932.121710062,1777774934.130631924,1777774935.152405977,1777774936.162888050,1777774938.192141056,1777774939.266427994
62,/Users/mehtaka/Desktop/Columbia/Nuttida_Lab/Utah/ContextCategorizationTask/STIMULI/shapes/mosquito.bmp,/Users/mehtaka/Desktop/Columbia/Nuttida_Lab/Utah/ContextCategorizationTask/STIMULI/contexts/office1.png,/Users/mehtaka/Desktop/Columbia/Nuttida_Lab/Utah/ContextCategorizationTask/STIMULI/contexts/garden1.png,secondary_first_img1,GARDEN,0.8388,1777774939.772764921,1777774940.412095070,1777774941.417658806,1777774942.427210093,1777774944.436781168,1777774945.460253000,1777774946.470525980,1777774948.505494118,1777774949.361793041
63,/Users/mehtaka/Desktop/Columbia/Nuttida_Lab/Utah/ContextCategorizationTask/STIMULI/shapes/birdcage.bmp,/Users/mehtaka/Desktop/Columbia/Nuttida_Lab/Utah/ContextCategorizationTask/STIMULI/contexts/petshop.png,/Users/mehtaka/Desktop/Columbia/Nuttida_Lab/Utah/ContextCategorizationTask/STIMULI/contexts/sportsfield.png,primary_first_img0,SPORTSFIELD,1.1601,1777774949.870868921,1777774950.754837036,1777774951.763494968,1777774952.772903919,1777774954.785683870,1777774955.832569122,1777774956.842833996,1777774958.875699997,1777774960.056387186
64,/Users/mehtaka/Desktop/Columbia/Nuttida_Lab/Utah/ContextCategorizationTask/STIMULI/shapes/teacup.bmp,/Users/mehtaka/Desktop/Columbia/Nuttida_Lab/Utah/ContextCategorizationTask/STIMULI/contexts/kitchen1.png,/Users/mehtaka/Desktop/Columbia/Nuttida_Lab/Utah/ContextCategorizationTask/STIMULI/contexts/office1.png,primary_first_img1,OFFICE,5.7338,1777774960.561284065,1777774961.189951897,1777774962.195456982,1777774963.204807997,1777774965.220955849,1777774966.269095898,1777774967.277141094,1777774969.332902908,1777774975.100921154
