trial,shape_path,context_1_path,context_2_path,trial_variant,response,rt,fixation_onset_ttl,context1_onset_ttl,shape_onset_ttl,reddot_onset_ttl,context2_onset_ttl,shape2_onset_ttl,reddot2_onset_ttl,question_onset_ttl,response_ttl
1,/Users/mehtaka/Desktop/Columbia/Nuttida_Lab/Utah/ContextCategorizationTask/STIMULI/shapes/ball_slope.bmp,/Users/mehtaka/Desktop/Columbia/Nuttida_Lab/Utah/ContextCategorizationTask/STIMULI/contexts/mountain1.png,/Users/mehtaka/Desktop/Columbia/Nuttida_Lab/Utah/ContextCategorizationTask/STIMULI/contexts/sportsfield1.png,secondary_first_img1,SPORTSFIELD,1.1409,1777604421.380424023,1777604422.330949068,1777604423.336111069,1777604424.350914955,1777604426.369421005,1777604427.392221928,1777604428.398772955,1777604430.469978094,1777604431.647407055
2,/Users/mehtaka/Desktop/Columbia/Nuttida_Lab/Utah/ContextCategorizationTask/STIMULI/shapes/toothbrush.bmp,/Users/mehtaka/Desktop/Columbia/Nuttida_Lab/Utah/ContextCategorizationTask/STIMULI/contexts/bathroom.png,/Users/mehtaka/Desktop/Columbia/Nuttida_Lab/Utah/ContextCategorizationTask/STIMULI/contexts/garden.png,primary_first_img0,BATHROOM,2.6625,1777604432.152879000,1777604433.027858973,1777604434.043599844,1777604435.054135084,1777604437.061720133,1777604438.074149847,1777604439.080565929,1777604441.110198975,1777604443.780478001
3,/Users/mehtaka/Desktop/Columbia/Nuttida_Lab/Utah/ContextCategorizationTask/STIMULI/shapes/basketball.bmp,/Users/mehtaka/Desktop/Columbia/Nuttida_Lab/Utah/ContextCategorizationTask/STIMULI/contexts/kitchen1.png,/Users/mehtaka/Desktop/Columbia/Nuttida_Lab/Utah/ContextCategorizationTask/STIMULI/contexts/sportsfield1.png,secondary_first_img1,KITCHEN,1.8429,1777604444.287203074,1777604445.005681992,1777604446.010310888,1777604447.030371189,1777604449.043378830,1777604450.056679964,1777604451.063727140,1777604453.093760014,1777604454.947807074
4,/Users/mehtaka/Desktop/Columbia/Nuttida_Lab/Utah/ContextCategorizationTask/STIMULI/shapes/nail_cutters.bmp,/Users/mehtaka/Desktop/Columbia/Nuttida_Lab/Utah/ContextCategorizationTask/STIMULI/contexts/office1.png,/Users/mehtaka/Desktop/Columbia/Nuttida_Lab/Utah/ContextCategorizationTask/STIMULI/contexts/bathroom1.png,secondary_first_img1,OFFICE,2.1309,1777604455.455091953,1777604456.293726921,1777604457.299551010,1777604458.309878111,1777604460.319065094,1777604461.332038879,1777604462.341280937,1777604464.367287159,1777604466.508111954
5,/Users/mehtaka/Desktop/Columbia/Nuttida_Lab/Utah/ContextCategorizationTask/STIMULI/shapes/bird'sfoot.bmp,/Users/mehtaka/Desktop/Columbia/Nuttida_Lab/Utah/ContextCategorizationTask/STIMULI/contexts/kitchen1.png,/Users/mehtaka/Desktop/Columbia/Nuttida_Lab/Utah/ContextCategorizationTask/STIMULI/contexts/petshop1.png,secondary_first_img1,PETSHOP,0.9342,1777604467.014962912,1777604467.757135153,1777604468.764860868,1777604469.775055885,1777604471.788177967,1777604472.815968990,1777604473.829133034,1777604475.874710083,1777604476.830695868
6,/Users/mehtaka/Desktop/Columbia/Nuttida_Lab/Utah/ContextCategorizationTask/STIMULI/shapes/tape.bmp,/Users/mehtaka/Desktop/Columbia/Nuttida_Lab/Utah/ContextCategorizationTask/STIMULI/contexts/sportsfield1.png,/Users/mehtaka/Desktop/Columbia/Nuttida_Lab/Utah/ContextCategorizationTask/STIMULI/contexts/office1.png,secondary_first_img1,OFFICE,1.8298,1777604477.337836981,1777604477.997596979,1777604479.003463984,1777604480.015725136,1777604482.025593042,1777604483.044506788,1777604484.052788973,1777604486.076656103,1777604487.915941954
7,/Users/mehtaka/Desktop/Columbia/Nuttida_Lab/Utah/ContextCategorizationTask/STIMULI/shapes/umbrella.bmp,/Users/mehtaka/Desktop/Columbia/Nuttida_Lab/Utah/ContextCategorizationTask/STIMULI/contexts/sky1.png,/Users/mehtaka/Desktop/Columbia/Nuttida_Lab/Utah/ContextCategorizationTask/STIMULI/contexts/kitchen1.png,primary_first_img1,KITCHEN,0.9961,1777604488.422064781,1777604489.131731987,1777604490.136783838,1777604491.149458885,1777604493.162739038,1777604494.195387840,1777604495.200933218,1777604497.238768101,1777604498.249001026
8,/Users/mehtaka/Desktop/Columbia/Nuttida_Lab/Utah/ContextCategorizationTask/STIMULI/shapes/tunnelentrance.bmp,/Users/mehtaka/Desktop/Columbia/Nuttida_Lab/Utah/ContextCategorizationTask/STIMULI/contexts/sportsfield1.png,/Users/mehtaka/Desktop/Columbia/Nuttida_Lab/Utah/ContextCategorizationTask/STIMULI/contexts/garden1.png,secondary_first_img1,GARDEN,1.2839,1777604498.756597996,1777604499.542555809,1777604500.548627853,1777604501.557968855,1777604503.570625067,1777604504.588417053,1777604505.597578049,1777604507.638244152,1777604508.930402040
9,/Users/mehtaka/Desktop/Columbia/Nuttida_Lab/Utah/ContextCategorizationTask/STIMULI/shapes/toiletpaper.bmp,/Users/mehtaka/Desktop/Columbia/Nuttida_Lab/Utah/ContextCategorizationTask/STIMULI/contexts/bathroom1.png,/Users/mehtaka/Desktop/Columbia/Nuttida_Lab/Utah/ContextCategorizationTask/STIMULI/contexts/office1.png,primary_first_img1,BATHROOM,1.0478,1777604509.437299013,1777604510.058426142,1777604511.062964916,1777604512.072079182,1777604514.082231998,1777604515.093580961,1777604516.099693060,1777604518.125965118,1777604519.180553913
10,/Users/mehtaka/Desktop/Columbia/Nuttida_Lab/Utah/ContextCategorizationTask/STIMULI/shapes/bikewheel.bmp,/Users/mehtaka/Desktop/Columbia/Nuttida_Lab/Utah/ContextCategorizationTask/STIMULI/contexts/kitchen1.png,/Users/mehtaka/Desktop/Columbia/Nuttida_Lab/Utah/ContextCategorizationTask/STIMULI/contexts/sportsfield1.png,secondary_first_img1,KITCHEN,1.0264,1777604519.687288046,1777604520.289901018,1777604521.295452833,1777604522.304690838,1777604524.314073086,1777604525.326979160,1777604526.335500956,1777604528.362405062,1777604529.396815777
11,/Users/mehtaka/Desktop/Columbia/Nuttida_Lab/Utah/ContextCategorizationTask/STIMULI/shapes/bug.bmp,/Users/mehtaka/Desktop/Columbia/Nuttida_Lab/Utah/ContextCategorizationTask/STIMULI/contexts/garden1.png,/Users/mehtaka/Desktop/Columbia/Nuttida_Lab/Utah/ContextCategorizationTask/STIMULI/contexts/sky1.png,primary_first_img1,GARDEN,1.0147,1777604529.903590918,1777604530.502927065,1777604531.507714987,1777604532.515301228,1777604534.527450085,1777604535.557315111,1777604536.569434166,1777604538.688596964,1777604539.715959072
12,/Users/mehtaka/Desktop/Columbia/Nuttida_Lab/Utah/ContextCategorizationTask/STIMULI/shapes/pan.bmp,/Users/mehtaka/Desktop/Columbia/Nuttida_Lab/Utah/ContextCategorizationTask/STIMULI/contexts/kitchen.png,/Users/mehtaka/Desktop/Columbia/Nuttida_Lab/Utah/ContextCategorizationTask/STIMULI/contexts/sportsfield.png,primary_first_img0,KITCHEN,1.0587,1777604540.223829985,1777604541.075315952,1777604542.081100941,1777604543.090121031,1777604545.136881828,1777604546.146486998,1777604547.153563976,1777604549.182636023,1777604550.252448082
13,/Users/mehtaka/Desktop/Columbia/Nuttida_Lab/Utah/ContextCategorizationTask/STIMULI/shapes/mosquito.bmp,/Users/mehtaka/Desktop/Columbia/Nuttida_Lab/Utah/ContextCategorizationTask/STIMULI/contexts/office.png,/Users/mehtaka/Desktop/Columbia/Nuttida_Lab/Utah/ContextCategorizationTask/STIMULI/contexts/garden.png,secondary_first_img0,GARDEN,1.0689,1777604550.760128975,1777604551.495471001,1777604552.501290083,1777604553.511039972,1777604555.519607067,1777604556.560274839,1777604557.566051006,1777604559.604413033,1777604560.701143026
14,/Users/mehtaka/Desktop/Columbia/Nuttida_Lab/Utah/ContextCategorizationTask/STIMULI/shapes/birdcage.bmp,/Users/mehtaka/Desktop/Columbia/Nuttida_Lab/Utah/ContextCategorizationTask/STIMULI/contexts/sportsfield.png,/Users/mehtaka/Desktop/Columbia/Nuttida_Lab/Utah/ContextCategorizationTask/STIMULI/contexts/petshop.png,secondary_first_img0,SPORTSFIELD,2.2604,1777604561.207979918,1777604561.941541910,1777604562.946681023,1777604563.957761049,1777604565.968828917,1777604567.000830889,1777604568.011188030,1777604570.071360111,1777604572.337733984
15,/Users/mehtaka/Desktop/Columbia/Nuttida_Lab/Utah/ContextCategorizationTask/STIMULI/shapes/teacup.bmp,/Users/mehtaka/Desktop/Columbia/Nuttida_Lab/Utah/ContextCategorizationTask/STIMULI/contexts/kitchen.png,/Users/mehtaka/Desktop/Columbia/Nuttida_Lab/Utah/ContextCategorizationTask/STIMULI/contexts/office.png,primary_first_img0,KITCHEN,0.9439,1777604572.845278978,1777604573.475102901,1777604574.479593039,1777604575.491346836,1777604577.503345966,1777604578.521160841,1777604579.531573057,1777604581.563268185,1777604582.522272110
16,/Users/mehtaka/Desktop/Columbia/Nuttida_Lab/Utah/ContextCategorizationTask/STIMULI/shapes/rugby.bmp,/Users/mehtaka/Desktop/Columbia/Nuttida_Lab/Utah/ContextCategorizationTask/STIMULI/contexts/garden.png,/Users/mehtaka/Desktop/Columbia/Nuttida_Lab/Utah/ContextCategorizationTask/STIMULI/contexts/sportsfield.png,secondary_first_img0,SPORTSFIELD,0.8969,1777604583.028420210,1777604583.671607018,1777604584.678814888,1777604585.689059019,1777604587.699213028,1777604588.712058783,1777604589.721270084,1777604591.749838114,1777604592.654998064
17,/Users/mehtaka/Desktop/Columbia/Nuttida_Lab/Utah/ContextCategorizationTask/STIMULI/shapes/ball_slope.bmp,/Users/mehtaka/Desktop/Columbia/Nuttida_Lab/Utah/ContextCategorizationTask/STIMULI/contexts/sportsfield.png,/Users/mehtaka/Desktop/Columbia/Nuttida_Lab/Utah/ContextCategorizationTask/STIMULI/contexts/mountain.png,primary_first_img0,SPORTSFIELD,0.9464,1777604595.077496052,1777604595.861748934,1777604596.866126060,1777604597.882642031,1777604599.894588947,1777604600.908545971,1777604601.917819977,1777604603.945847034,1777604604.906915188
18,/Users/mehtaka/Desktop/Columbia/Nuttida_Lab/Utah/ContextCategorizationTask/STIMULI/shapes/tape.bmp,/Users/mehtaka/Desktop/Columbia/Nuttida_Lab/Utah/ContextCategorizationTask/STIMULI/contexts/sportsfield.png,/Users/mehtaka/Desktop/Columbia/Nuttida_Lab/Utah/ContextCategorizationTask/STIMULI/contexts/office.png,secondary_first_img0,SPORTSFIELD,0.6470,1777604605.414757967,1777604606.040349007,1777604607.045136929,1777604608.055429220,1777604610.064596891,1777604611.075237989,1777604612.082799196,1777604614.115627050,1777604614.769845963
19,/Users/mehtaka/Desktop/Columbia/Nuttida_Lab/Utah/ContextCategorizationTask/STIMULI/shapes/bird'sfoot.bmp,/Users/mehtaka/Desktop/Columbia/Nuttida_Lab/Utah/ContextCategorizationTask/STIMULI/contexts/kitchen.png,/Users/mehtaka/Desktop/Columbia/Nuttida_Lab/Utah/ContextCategorizationTask/STIMULI/contexts/petshop.png,secondary_first_img0,PETSHOP,0.7163,1777604615.277061939,1777604615.942142963,1777604616.946891069,1777604617.955770969,1777604619.966925144,1777604620.985955000,1777604621.997048140,1777604624.027594090,1777604624.758245230
20,/Users/mehtaka/Desktop/Columbia/Nuttida_Lab/Utah/ContextCategorizationTask/STIMULI/shapes/tunnelentrance.bmp,/Users/mehtaka/Desktop/Columbia/Nuttida_Lab/Utah/ContextCategorizationTask/STIMULI/contexts/garden.png,/Users/mehtaka/Desktop/Columbia/Nuttida_Lab/Utah/ContextCategorizationTask/STIMULI/contexts/sportsfield.png,primary_first_img0,GARDEN,0.8910,1777604625.265711069,1777604625.919179916,1777604626.925360918,1777604627.935967922,1777604629.946889877,1777604630.963500977,1777604631.974238873,1777604634.010373831,1777604634.912709236
21,/Users/mehtaka/Desktop/Columbia/Nuttida_Lab/Utah/ContextCategorizationTask/STIMULI/shapes/umbrella.bmp,/Users/mehtaka/Desktop/Columbia/Nuttida_Lab/Utah/ContextCategorizationTask/STIMULI/contexts/kitchen1.png,/Users/mehtaka/Desktop/Columbia/Nuttida_Lab/Utah/ContextCategorizationTask/STIMULI/contexts/sky1.png,secondary_first_img1,KITCHEN,1.1708,1777604635.420073986,1777604636.045914888,1777604637.051819086,1777604638.061265945,1777604640.070786953,1777604641.080734015,1777604642.093617916,1777604644.122106075,1777604645.303408861
22,/Users/mehtaka/Desktop/Columbia/Nuttida_Lab/Utah/ContextCategorizationTask/STIMULI/shapes/bikewheel.bmp,/Users/mehtaka/Desktop/Columbia/Nuttida_Lab/Utah/ContextCategorizationTask/STIMULI/contexts/sportsfield1.png,/Users/mehtaka/Desktop/Columbia/Nuttida_Lab/Utah/ContextCategorizationTask/STIMULI/contexts/kitchen1.png,primary_first_img1,SPORTSFIELD,0.9619,1777604645.811982155,1777604646.435493946,1777604647.440344095,1777604648.451596975,1777604650.460340977,1777604651.489401102,1777604652.496035099,1777604654.545743942,1777604655.525058985
23,/Users/mehtaka/Desktop/Columbia/Nuttida_Lab/Utah/ContextCategorizationTask/STIMULI/shapes/toiletpaper.bmp,/Users/mehtaka/Desktop/Columbia/Nuttida_Lab/Utah/ContextCategorizationTask/STIMULI/contexts/bathroom.png,/Users/mehtaka/Desktop/Columbia/Nuttida_Lab/Utah/ContextCategorizationTask/STIMULI/contexts/office.png,primary_first_img0,BATHROOM,1.3930,1777604656.032258987,1777604656.660428047,1777604657.665791035,1777604658.675575972,1777604660.685112000,1777604661.700801134,1777604662.751049995,1777604664.780143023,1777604666.188869238
24,/Users/mehtaka/Desktop/Columbia/Nuttida_Lab/Utah/ContextCategorizationTask/STIMULI/shapes/basketball.bmp,/Users/mehtaka/Desktop/Columbia/Nuttida_Lab/Utah/ContextCategorizationTask/STIMULI/contexts/sportsfield1.png,/Users/mehtaka/Desktop/Columbia/Nuttida_Lab/Utah/ContextCategorizationTask/STIMULI/contexts/kitchen1.png,primary_first_img1,KITCHEN,1.1343,1777604666.697829962,1777604667.336908102,1777604668.343273878,1777604669.353822947,1777604671.364673138,1777604672.380807877,1777604673.390156031,1777604675.423717976,1777604676.566508055
25,/Users/mehtaka/Desktop/Columbia/Nuttida_Lab/Utah/ContextCategorizationTask/STIMULI/shapes/toothbrush.bmp,/Users/mehtaka/Desktop/Columbia/Nuttida_Lab/Utah/ContextCategorizationTask/STIMULI/contexts/garden1.png,/Users/mehtaka/Desktop/Columbia/Nuttida_Lab/Utah/ContextCategorizationTask/STIMULI/contexts/bathroom1.png,secondary_first_img1,BATHROOM,1.0711,1777604677.073837996,1777604677.700802088,1777604678.705450058,1777604679.715332031,1777604681.725555897,1777604682.740818024,1777604683.750231028,1777604685.779344797,1777604686.863504887
26,/Users/mehtaka/Desktop/Columbia/Nuttida_Lab/Utah/ContextCategorizationTask/STIMULI/shapes/teacup.bmp,/Users/mehtaka/Desktop/Columbia/Nuttida_Lab/Utah/ContextCategorizationTask/STIMULI/contexts/office.png,/Users/mehtaka/Desktop/Columbia/Nuttida_Lab/Utah/ContextCategorizationTask/STIMULI/contexts/kitchen.png,secondary_first_img0,KITCHEN,1.0539,1777604687.370934010,1777604688.026525974,1777604689.034744024,1777604690.042012930,1777604692.054201126,1777604693.065761089,1777604694.072799921,1777604696.100643158,1777604697.163141966
27,/Users/mehtaka/Desktop/Columbia/Nuttida_Lab/Utah/ContextCategorizationTask/STIMULI/shapes/rugby.bmp,/Users/mehtaka/Desktop/Columbia/Nuttida_Lab/Utah/ContextCategorizationTask/STIMULI/contexts/sportsfield.png,/Users/mehtaka/Desktop/Columbia/Nuttida_Lab/Utah/ContextCategorizationTask/STIMULI/contexts/garden.png,primary_first_img0,GARDEN,1.3647,1777604697.670388937,1777604698.286550999,1777604699.292119026,1777604700.301908016,1777604702.311197042,1777604703.338734150,1777604704.351768017,1777604706.389937878,1777604707.764133930
28,/Users/mehtaka/Desktop/Columbia/Nuttida_Lab/Utah/ContextCategorizationTask/STIMULI/shapes/bug.bmp,/Users/mehtaka/Desktop/Columbia/Nuttida_Lab/Utah/ContextCategorizationTask/STIMULI/contexts/garden.png,/Users/mehtaka/Desktop/Columbia/Nuttida_Lab/Utah/ContextCategorizationTask/STIMULI/contexts/sky.png,primary_first_img0,GARDEN,1.3445,1777604708.273800850,1777604709.010591030,1777604710.020763874,1777604711.029605150,1777604713.039625883,1777604714.054367065,1777604715.078272104,1777604717.119727135,1777604718.477327108
29,/Users/mehtaka/Desktop/Columbia/Nuttida_Lab/Utah/ContextCategorizationTask/STIMULI/shapes/pan.bmp,/Users/mehtaka/Desktop/Columbia/Nuttida_Lab/Utah/ContextCategorizationTask/STIMULI/contexts/sportsfield.png,/Users/mehtaka/Desktop/Columbia/Nuttida_Lab/Utah/ContextCategorizationTask/STIMULI/contexts/kitchen.png,secondary_first_img0,KITCHEN,0.7048,1777604718.983455896,1777604719.630202770,1777604720.635061979,1777604721.644778013,1777604723.657627821,1777604724.672213078,1777604725.681146145,1777604727.707813025,1777604728.423183203
30,/Users/mehtaka/Desktop/Columbia/Nuttida_Lab/Utah/ContextCategorizationTask/STIMULI/shapes/mosquito.bmp,/Users/mehtaka/Desktop/Columbia/Nuttida_Lab/Utah/ContextCategorizationTask/STIMULI/contexts/garden.png,/Users/mehtaka/Desktop/Columbia/Nuttida_Lab/Utah/ContextCategorizationTask/STIMULI/contexts/office.png,primary_first_img0,GARDEN,1.0991,1777604728.930075884,1777604729.571469069,1777604730.577620983,1777604731.585221052,1777604733.595411062,1777604734.613936901,1777604735.623162985,1777604737.658550024,1777604738.765961885
31,/Users/mehtaka/Desktop/Columbia/Nuttida_Lab/Utah/ContextCategorizationTask/STIMULI/shapes/birdcage.bmp,/Users/mehtaka/Desktop/Columbia/Nuttida_Lab/Utah/ContextCategorizationTask/STIMULI/contexts/petshop1.png,/Users/mehtaka/Desktop/Columbia/Nuttida_Lab/Utah/ContextCategorizationTask/STIMULI/contexts/sportsfield1.png,primary_first_img1,PETSHOP,1.1034,1777604739.274156094,1777604739.959152222,1777604740.964332104,1777604741.973082781,1777604743.981392860,1777604744.997209072,1777604746.004936934,1777604748.031428099,1777604749.144783974
32,/Users/mehtaka/Desktop/Columbia/Nuttida_Lab/Utah/ContextCategorizationTask/STIMULI/shapes/tape.bmp,/Users/mehtaka/Desktop/Columbia/Nuttida_Lab/Utah/ContextCategorizationTask/STIMULI/contexts/office1.png,/Users/mehtaka/Desktop/Columbia/Nuttida_Lab/Utah/ContextCategorizationTask/STIMULI/contexts/sportsfield1.png,primary_first_img1,OFFICE,0.9765,1777604749.651151896,1777604750.331218004,1777604751.337015152,1777604752.345045090,1777604754.354628086,1777604755.370392084,1777604756.379317999,1777604758.405042887,1777604759.389520884
33,/Users/mehtaka/Desktop/Columbia/Nuttida_Lab/Utah/ContextCategorizationTask/STIMULI/shapes/bird'sfoot.bmp,/Users/mehtaka/Desktop/Columbia/Nuttida_Lab/Utah/ContextCategorizationTask/STIMULI/contexts/petshop.png,/Users/mehtaka/Desktop/Columbia/Nuttida_Lab/Utah/ContextCategorizationTask/STIMULI/contexts/kitchen.png,primary_first_img0,PETSHOP,0.8619,1777604761.393350840,1777604762.000513077,1777604763.005557060,1777604764.013549089,1777604766.022305012,1777604767.036847115,1777604768.045650005,1777604770.069032907,1777604770.936408997
34,/Users/mehtaka/Desktop/Columbia/Nuttida_Lab/Utah/ContextCategorizationTask/STIMULI/shapes/tunnelentrance.bmp,/Users/mehtaka/Desktop/Columbia/Nuttida_Lab/Utah/ContextCategorizationTask/STIMULI/contexts/sportsfield.png,/Users/mehtaka/Desktop/Columbia/Nuttida_Lab/Utah/ContextCategorizationTask/STIMULI/contexts/garden.png,secondary_first_img0,GARDEN,0.9513,1777604771.443507910,1777604772.036973000,1777604773.042874813,1777604774.057139874,1777604776.097352982,1777604777.145128012,1777604778.155322075,1777604780.202399969,1777604781.162128925
35,/Users/mehtaka/Desktop/Columbia/Nuttida_Lab/Utah/ContextCategorizationTask/STIMULI/shapes/nail_cutters.bmp,/Users/mehtaka/Desktop/Columbia/Nuttida_Lab/Utah/ContextCategorizationTask/STIMULI/contexts/office.png,/Users/mehtaka/Desktop/Columbia/Nuttida_Lab/Utah/ContextCategorizationTask/STIMULI/contexts/bathroom.png,secondary_first_img0,OFFICE,1.0023,1777604781.670074940,1777604782.298156977,1777604783.303421974,1777604784.312178850,1777604786.323268175,1777604787.339428186,1777604788.347563982,1777604790.371436119,1777604791.381720066
36,/Users/mehtaka/Desktop/Columbia/Nuttida_Lab/Utah/ContextCategorizationTask/STIMULI/shapes/bikewheel.bmp,/Users/mehtaka/Desktop/Columbia/Nuttida_Lab/Utah/ContextCategorizationTask/STIMULI/contexts/sportsfield.png,/Users/mehtaka/Desktop/Columbia/Nuttida_Lab/Utah/ContextCategorizationTask/STIMULI/contexts/kitchen.png,primary_first_img0,KITCHEN,0.7329,1777604791.888325214,1777604792.525209188,1777604793.530083179,1777604794.539853096,1777604796.549253941,1777604797.563519001,1777604798.572072983,1777604800.598925114,1777604801.342745066
37,/Users/mehtaka/Desktop/Columbia/Nuttida_Lab/Utah/ContextCategorizationTask/STIMULI/shapes/toothbrush.bmp,/Users/mehtaka/Desktop/Columbia/Nuttida_Lab/Utah/ContextCategorizationTask/STIMULI/contexts/bathroom1.png,/Users/mehtaka/Desktop/Columbia/Nuttida_Lab/Utah/ContextCategorizationTask/STIMULI/contexts/garden1.png,primary_first_img1,BATHROOM,0.6369,1777604801.850178957,1777604802.496840000,1777604803.501770020,1777604804.510654926,1777604806.521464109,1777604807.537222862,1777604808.547456026,1777604810.574120998,1777604811.222516060
38,/Users/mehtaka/Desktop/Columbia/Nuttida_Lab/Utah/ContextCategorizationTask/STIMULI/shapes/basketball.bmp,/Users/mehtaka/Desktop/Columbia/Nuttida_Lab/Utah/ContextCategorizationTask/STIMULI/contexts/sportsfield.png,/Users/mehtaka/Desktop/Columbia/Nuttida_Lab/Utah/ContextCategorizationTask/STIMULI/contexts/kitchen.png,primary_first_img0,KITCHEN,0.6056,1777604811.727602005,1777604812.348080158,1777604813.353617907,1777604814.363386154,1777604816.372488976,1777604817.382556915,1777604818.391250849,1777604820.419283867,1777604821.033497095
39,/Users/mehtaka/Desktop/Columbia/Nuttida_Lab/Utah/ContextCategorizationTask/STIMULI/shapes/rugby.bmp,/Users/mehtaka/Desktop/Columbia/Nuttida_Lab/Utah/ContextCategorizationTask/STIMULI/contexts/garden1.png,/Users/mehtaka/Desktop/Columbia/Nuttida_Lab/Utah/ContextCategorizationTask/STIMULI/contexts/sportsfield1.png,secondary_first_img1,SPORTSFIELD,0.8175,1777604821.538476944,1777604822.155436039,1777604823.160049915,1777604824.170391083,1777604826.182219982,1777604827.204832077,1777604828.212143183,1777604830.242732048,1777604831.071441889
40,/Users/mehtaka/Desktop/Columbia/Nuttida_Lab/Utah/ContextCategorizationTask/STIMULI/shapes/ball_slope.bmp,/Users/mehtaka/Desktop/Columbia/Nuttida_Lab/Utah/ContextCategorizationTask/STIMULI/contexts/sportsfield1.png,/Users/mehtaka/Desktop/Columbia/Nuttida_Lab/Utah/ContextCategorizationTask/STIMULI/contexts/mountain1.png,primary_first_img1,MOUNTAIN,0.7098,1777604831.579705000,1777604832.292565107,1777604833.298434019,1777604834.307133913,1777604836.328261852,1777604837.358576059,1777604838.369159937,1777604840.421274185,1777604841.145812988
41,/Users/mehtaka/Desktop/Columbia/Nuttida_Lab/Utah/ContextCategorizationTask/STIMULI/shapes/mosquito.bmp,/Users/mehtaka/Desktop/Columbia/Nuttida_Lab/Utah/ContextCategorizationTask/STIMULI/contexts/garden1.png,/Users/mehtaka/Desktop/Columbia/Nuttida_Lab/Utah/ContextCategorizationTask/STIMULI/contexts/office1.png,primary_first_img1,GARDEN,4.9225,1777604841.653144121,1777604842.266650200,1777604843.270338058,1777604844.280741215,1777604846.305849075,1777604847.350475073,1777604848.356317997,1777604850.393730164,1777604855.329739094
42,/Users/mehtaka/Desktop/Columbia/Nuttida_Lab/Utah/ContextCategorizationTask/STIMULI/shapes/umbrella.bmp,/Users/mehtaka/Desktop/Columbia/Nuttida_Lab/Utah/ContextCategorizationTask/STIMULI/contexts/sky.png,/Users/mehtaka/Desktop/Columbia/Nuttida_Lab/Utah/ContextCategorizationTask/STIMULI/contexts/kitchen.png,primary_first_img0,SKY,1.1469,1777604855.836426973,1777604856.516465902,1777604857.520889044,1777604858.531369925,1777604860.542112112,1777604861.567775011,1777604862.576527834,1777604864.603050947,1777604865.760805845
43,/Users/mehtaka/Desktop/Columbia/Nuttida_Lab/Utah/ContextCategorizationTask/STIMULI/shapes/birdcage.bmp,/Users/mehtaka/Desktop/Columbia/Nuttida_Lab/Utah/ContextCategorizationTask/STIMULI/contexts/sportsfield1.png,/Users/mehtaka/Desktop/Columbia/Nuttida_Lab/Utah/ContextCategorizationTask/STIMULI/contexts/petshop1.png,secondary_first_img1,SPORTSFIELD,2.3310,1777604866.268485785,1777604866.912819862,1777604867.919085026,1777604868.935522079,1777604870.948906898,1777604871.968850851,1777604872.977107048,1777604875.006022930,1777604877.348989010
44,/Users/mehtaka/Desktop/Columbia/Nuttida_Lab/Utah/ContextCategorizationTask/STIMULI/shapes/toiletpaper.bmp,/Users/mehtaka/Desktop/Columbia/Nuttida_Lab/Utah/ContextCategorizationTask/STIMULI/contexts/office1.png,/Users/mehtaka/Desktop/Columbia/Nuttida_Lab/Utah/ContextCategorizationTask/STIMULI/contexts/bathroom1.png,secondary_first_img1,BATHROOM,0.6326,1777604877.857141972,1777604878.478763103,1777604879.483031034,1777604880.493883848,1777604882.504853964,1777604883.519644022,1777604884.528353930,1777604886.556113958,1777604887.197658777
45,/Users/mehtaka/Desktop/Columbia/Nuttida_Lab/Utah/ContextCategorizationTask/STIMULI/shapes/pan.bmp,/Users/mehtaka/Desktop/Columbia/Nuttida_Lab/Utah/ContextCategorizationTask/STIMULI/contexts/sportsfield1.png,/Users/mehtaka/Desktop/Columbia/Nuttida_Lab/Utah/ContextCategorizationTask/STIMULI/contexts/kitchen1.png,secondary_first_img1,SPORTSFIELD,0.9514,1777604887.704444885,1777604888.315940142,1777604889.321924210,1777604890.332520008,1777604892.342054844,1777604893.362376928,1777604894.371542931,1777604896.425797224,1777604897.396238089
46,/Users/mehtaka/Desktop/Columbia/Nuttida_Lab/Utah/ContextCategorizationTask/STIMULI/shapes/bug.bmp,/Users/mehtaka/Desktop/Columbia/Nuttida_Lab/Utah/ContextCategorizationTask/STIMULI/contexts/sky.png,/Users/mehtaka/Desktop/Columbia/Nuttida_Lab/Utah/ContextCategorizationTask/STIMULI/contexts/garden.png,secondary_first_img0,GARDEN,1.0451,1777604898.763632059,1777604899.666164875,1777604900.673786163,1777604901.681442022,1777604903.693917990,1777604904.727113962,1777604905.737299919,1777604907.786508083,1777604908.843667030
47,/Users/mehtaka/Desktop/Columbia/Nuttida_Lab/Utah/ContextCategorizationTask/STIMULI/shapes/nail_cutters.bmp,/Users/mehtaka/Desktop/Columbia/Nuttida_Lab/Utah/ContextCategorizationTask/STIMULI/contexts/bathroom1.png,/Users/mehtaka/Desktop/Columbia/Nuttida_Lab/Utah/ContextCategorizationTask/STIMULI/contexts/office1.png,primary_first_img1,OFFICE,1.1288,1777604909.350517988,1777604909.990200996,1777604910.994180202,1777604912.004696131,1777604914.013765812,1777604915.036617994,1777604916.046915054,1777604918.155345917,1777604919.293467999
48,/Users/mehtaka/Desktop/Columbia/Nuttida_Lab/Utah/ContextCategorizationTask/STIMULI/shapes/teacup.bmp,/Users/mehtaka/Desktop/Columbia/Nuttida_Lab/Utah/ContextCategorizationTask/STIMULI/contexts/office1.png,/Users/mehtaka/Desktop/Columbia/Nuttida_Lab/Utah/ContextCategorizationTask/STIMULI/contexts/kitchen1.png,secondary_first_img1,OFFICE,0.7571,1777604919.798601866,1777604920.415436983,1777604921.419560909,1777604922.429389000,1777604924.439008951,1777604925.449867964,1777604926.457935810,1777604928.485897064,1777604929.255959034
49,/Users/mehtaka/Desktop/Columbia/Nuttida_Lab/Utah/ContextCategorizationTask/STIMULI/shapes/tunnelentrance.bmp,/Users/mehtaka/Desktop/Columbia/Nuttida_Lab/Utah/ContextCategorizationTask/STIMULI/contexts/garden1.png,/Users/mehtaka/Desktop/Columbia/Nuttida_Lab/Utah/ContextCategorizationTask/STIMULI/contexts/sportsfield1.png,primary_first_img1,GARDEN,0.8630,1777604931.668916941,1777604932.378994942,1777604933.383237123,1777604934.394407988,1777604936.407226086,1777604937.428776026,1777604938.437446833,1777604940.464519978,1777604941.337795019
50,/Users/mehtaka/Desktop/Columbia/Nuttida_Lab/Utah/ContextCategorizationTask/STIMULI/shapes/basketball.bmp,/Users/mehtaka/Desktop/Columbia/Nuttida_Lab/Utah/ContextCategorizationTask/STIMULI/contexts/kitchen.png,/Users/mehtaka/Desktop/Columbia/Nuttida_Lab/Utah/ContextCategorizationTask/STIMULI/contexts/sportsfield.png,secondary_first_img0,KITCHEN,0.9644,1777604941.845960855,1777604942.587172031,1777604943.593392849,1777604944.603729010,1777604946.614714146,1777604947.635775089,1777604948.645035982,1777604950.677896976,1777604951.651355982
51,/Users/mehtaka/Desktop/Columbia/Nuttida_Lab/Utah/ContextCategorizationTask/STIMULI/shapes/toothbrush.bmp,/Users/mehtaka/Desktop/Columbia/Nuttida_Lab/Utah/ContextCategorizationTask/STIMULI/contexts/garden.png,/Users/mehtaka/Desktop/Columbia/Nuttida_Lab/Utah/ContextCategorizationTask/STIMULI/contexts/bathroom.png,secondary_first_img0,BATHROOM,0.7906,1777604952.157178879,1777604952.812576056,1777604953.817710161,1777604954.830725908,1777604956.854234934,1777604957.889225006,1777604958.909371853,1777604960.956797838,1777604961.760549784
52,/Users/mehtaka/Desktop/Columbia/Nuttida_Lab/Utah/ContextCategorizationTask/STIMULI/shapes/rugby.bmp,/Users/mehtaka/Desktop/Columbia/Nuttida_Lab/Utah/ContextCategorizationTask/STIMULI/contexts/sportsfield1.png,/Users/mehtaka/Desktop/Columbia/Nuttida_Lab/Utah/ContextCategorizationTask/STIMULI/contexts/garden1.png,primary_first_img1,SPORTSFIELD,1.0165,1777604962.266862154,1777604962.919800997,1777604963.924165010,1777604964.937328815,1777604966.945979834,1777604967.966300964,1777604968.976534128,1777604971.003263950,1777604972.043761969
53,/Users/mehtaka/Desktop/Columbia/Nuttida_Lab/Utah/ContextCategorizationTask/STIMULI/shapes/umbrella.bmp,/Users/mehtaka/Desktop/Columbia/Nuttida_Lab/Utah/ContextCategorizationTask/STIMULI/contexts/kitchen.png,/Users/mehtaka/Desktop/Columbia/Nuttida_Lab/Utah/ContextCategorizationTask/STIMULI/contexts/sky.png,secondary_first_img0,KITCHEN,0.7817,1777604972.549553871,1777604973.193061829,1777604974.197345972,1777604975.206993818,1777604977.217421055,1777604978.227980137,1777604979.236254930,1777604981.259499073,1777604982.048538208
54,/Users/mehtaka/Desktop/Columbia/Nuttida_Lab/Utah/ContextCategorizationTask/STIMULI/shapes/tape.bmp,/Users/mehtaka/Desktop/Columbia/Nuttida_Lab/Utah/ContextCategorizationTask/STIMULI/contexts/office.png,/Users/mehtaka/Desktop/Columbia/Nuttida_Lab/Utah/ContextCategorizationTask/STIMULI/contexts/sportsfield.png,primary_first_img0,OFFICE,0.4861,1777604982.557116985,1777604983.199211121,1777604984.204461098,1777604985.214678049,1777604987.223686934,1777604988.246453047,1777604989.254333019,1777604991.294394016,1777604991.788967848
55,/Users/mehtaka/Desktop/Columbia/Nuttida_Lab/Utah/ContextCategorizationTask/STIMULI/shapes/bird'sfoot.bmp,/Users/mehtaka/Desktop/Columbia/Nuttida_Lab/Utah/ContextCategorizationTask/STIMULI/contexts/petshop1.png,/Users/mehtaka/Desktop/Columbia/Nuttida_Lab/Utah/ContextCategorizationTask/STIMULI/contexts/kitchen1.png,primary_first_img1,PETSHOP,0.8167,1777604992.296952009,1777604992.930794954,1777604993.934458971,1777604994.943576097,1777604996.954734087,1777604997.971297979,1777604998.979723930,1777605001.009807110,1777605001.838185072
56,/Users/mehtaka/Desktop/Columbia/Nuttida_Lab/Utah/ContextCategorizationTask/STIMULI/shapes/toiletpaper.bmp,/Users/mehtaka/Desktop/Columbia/Nuttida_Lab/Utah/ContextCategorizationTask/STIMULI/contexts/office.png,/Users/mehtaka/Desktop/Columbia/Nuttida_Lab/Utah/ContextCategorizationTask/STIMULI/contexts/bathroom.png,secondary_first_img0,BATHROOM,0.8178,1777605002.342540979,1777605002.981992960,1777605003.986610889,1777605004.998018980,1777605007.009696007,1777605008.028160095,1777605009.043269873,1777605011.079886198,1777605011.905459881
57,/Users/mehtaka/Desktop/Columbia/Nuttida_Lab/Utah/ContextCategorizationTask/STIMULI/shapes/bikewheel.bmp,/Users/mehtaka/Desktop/Columbia/Nuttida_Lab/Utah/ContextCategorizationTask/STIMULI/contexts/kitchen.png,/Users/mehtaka/Desktop/Columbia/Nuttida_Lab/Utah/ContextCategorizationTask/STIMULI/contexts/sportsfield.png,secondary_first_img0,KITCHEN,0.9297,1777605012.414727926,1777605013.066185951,1777605014.071961164,1777605015.082873106,1777605017.096325874,1777605018.119667053,1777605019.128987789,1777605021.171008110,1777605022.112478971
58,/Users/mehtaka/Desktop/Columbia/Nuttida_Lab/Utah/ContextCategorizationTask/STIMULI/shapes/bug.bmp,/Users/mehtaka/Desktop/Columbia/Nuttida_Lab/Utah/ContextCategorizationTask/STIMULI/contexts/sky1.png,/Users/mehtaka/Desktop/Columbia/Nuttida_Lab/Utah/ContextCategorizationTask/STIMULI/contexts/garden1.png,secondary_first_img1,GARDEN,1.1020,1777605022.618497133,1777605023.380605936,1777605024.387248039,1777605025.397279978,1777605027.408700943,1777605028.425230026,1777605029.434612989,1777605031.463981152,1777605032.577605963
59,/Users/mehtaka/Desktop/Columbia/Nuttida_Lab/Utah/ContextCategorizationTask/STIMULI/shapes/ball_slope.bmp,/Users/mehtaka/Desktop/Columbia/Nuttida_Lab/Utah/ContextCategorizationTask/STIMULI/contexts/mountain.png,/Users/mehtaka/Desktop/Columbia/Nuttida_Lab/Utah/ContextCategorizationTask/STIMULI/contexts/sportsfield.png,secondary_first_img0,SPORTSFIELD,0.9721,1777605033.089657068,1777605033.883322001,1777605034.890000820,1777605035.902076960,1777605037.911127090,1777605038.963654995,1777605039.973974943,1777605041.998913050,1777605042.983027935
60,/Users/mehtaka/Desktop/Columbia/Nuttida_Lab/Utah/ContextCategorizationTask/STIMULI/shapes/nail_cutters.bmp,/Users/mehtaka/Desktop/Columbia/Nuttida_Lab/Utah/ContextCategorizationTask/STIMULI/contexts/bathroom.png,/Users/mehtaka/Desktop/Columbia/Nuttida_Lab/Utah/ContextCategorizationTask/STIMULI/contexts/office.png,primary_first_img0,BATHROOM,1.2279,1777605043.491594076,1777605044.123826981,1777605045.130503893,1777605046.139492035,1777605048.149410009,1777605049.160488844,1777605050.168141127,1777605052.202416182,1777605053.438930035
61,/Users/mehtaka/Desktop/Columbia/Nuttida_Lab/Utah/ContextCategorizationTask/STIMULI/shapes/pan.bmp,/Users/mehtaka/Desktop/Columbia/Nuttida_Lab/Utah/ContextCategorizationTask/STIMULI/contexts/kitchen1.png,/Users/mehtaka/Desktop/Columbia/Nuttida_Lab/Utah/ContextCategorizationTask/STIMULI/contexts/sportsfield1.png,primary_first_img1,SPORTSFIELD,0.8844,1777605053.943641186,1777605054.572877169,1777605055.578019142,1777605056.588291168,1777605058.599560976,1777605059.611878872,1777605060.619523048,1777605062.644661903,1777605063.543869019
62,/Users/mehtaka/Desktop/Columbia/Nuttida_Lab/Utah/ContextCategorizationTask/STIMULI/shapes/mosquito.bmp,/Users/mehtaka/Desktop/Columbia/Nuttida_Lab/Utah/ContextCategorizationTask/STIMULI/contexts/office1.png,/Users/mehtaka/Desktop/Columbia/Nuttida_Lab/Utah/ContextCategorizationTask/STIMULI/contexts/garden1.png,secondary_first_img1,OFFICE,0.6549,1777605064.052539825,1777605064.694363832,1777605065.699944973,1777605066.709460020,1777605068.721388102,1777605069.736550808,1777605070.744870901,1777605072.772132158,1777605073.448176861
63,/Users/mehtaka/Desktop/Columbia/Nuttida_Lab/Utah/ContextCategorizationTask/STIMULI/shapes/birdcage.bmp,/Users/mehtaka/Desktop/Columbia/Nuttida_Lab/Utah/ContextCategorizationTask/STIMULI/contexts/petshop.png,/Users/mehtaka/Desktop/Columbia/Nuttida_Lab/Utah/ContextCategorizationTask/STIMULI/contexts/sportsfield.png,primary_first_img0,SPORTSFIELD,0.8883,1777605073.956720114,1777605074.793560982,1777605075.800304890,1777605076.807401896,1777605078.825049162,1777605079.850841999,1777605080.860359907,1777605082.897807837,1777605083.799453974
64,/Users/mehtaka/Desktop/Columbia/Nuttida_Lab/Utah/ContextCategorizationTask/STIMULI/shapes/teacup.bmp,/Users/mehtaka/Desktop/Columbia/Nuttida_Lab/Utah/ContextCategorizationTask/STIMULI/contexts/kitchen1.png,/Users/mehtaka/Desktop/Columbia/Nuttida_Lab/Utah/ContextCategorizationTask/STIMULI/contexts/office1.png,primary_first_img1,OFFICE,0.7342,1777605084.307261944,1777605084.990886927,1777605085.996389151,1777605087.006605148,1777605089.017328024,1777605090.036962986,1777605091.045991898,1777605093.076523066,1777605093.818746090
