trial,shape_path,context_1_path,context_2_path,trial_variant,response,rt,fixation_onset_ttl,context1_onset_ttl,shape_onset_ttl,reddot_onset_ttl,context2_onset_ttl,shape2_onset_ttl,reddot2_onset_ttl,question_onset_ttl,response_ttl
1,/Users/mehtaka/Desktop/Columbia/Nuttida_Lab/Utah/ContextCategorizationTask/STIMULI/Shapes/Shape_3_1.png,/Users/mehtaka/Desktop/Columbia/Nuttida_Lab/Utah/ContextCategorizationTask/STIMULI/Context_Images/sky1.png,/Users/mehtaka/Desktop/Columbia/Nuttida_Lab/Utah/ContextCategorizationTask/STIMULI/Context_Images/bedroom1.png,original,SKY,1.5492,,,,,,,,,1774375373.048217058
2,/Users/mehtaka/Desktop/Columbia/Nuttida_Lab/Utah/ContextCategorizationTask/STIMULI/Shapes/Shape_3_2.png,/Users/mehtaka/Desktop/Columbia/Nuttida_Lab/Utah/ContextCategorizationTask/STIMULI/Context_Images/bedroom2.png,/Users/mehtaka/Desktop/Columbia/Nuttida_Lab/Utah/ContextCategorizationTask/STIMULI/Context_Images/acorn2.png,control_context_swapped,BEDROOM,0.9425,,,,,,,,,1774375387.251250029
3,/Users/mehtaka/Desktop/Columbia/Nuttida_Lab/Utah/ContextCategorizationTask/STIMULI/Shapes/Shape_0_0.png,/Users/mehtaka/Desktop/Columbia/Nuttida_Lab/Utah/ContextCategorizationTask/STIMULI/Context_Images/carrot_2.png,/Users/mehtaka/Desktop/Columbia/Nuttida_Lab/Utah/ContextCategorizationTask/STIMULI/Context_Images/cinema_2.png,control_context,CARROT,0.9346,,,,,,,,,1774375401.435448170
4,/Users/mehtaka/Desktop/Columbia/Nuttida_Lab/Utah/ContextCategorizationTask/STIMULI/Shapes/Shape_3_1.png,/Users/mehtaka/Desktop/Columbia/Nuttida_Lab/Utah/ContextCategorizationTask/STIMULI/Context_Images/sky2.png,/Users/mehtaka/Desktop/Columbia/Nuttida_Lab/Utah/ContextCategorizationTask/STIMULI/Context_Images/bedroom2.png,control_context,SKY,0.9416,,,,,,,,,1774375415.658365965
5,/Users/mehtaka/Desktop/Columbia/Nuttida_Lab/Utah/ContextCategorizationTask/STIMULI/Shapes/Shape_3_3.png,/Users/mehtaka/Desktop/Columbia/Nuttida_Lab/Utah/ContextCategorizationTask/STIMULI/Context_Images/acorn1.png,/Users/mehtaka/Desktop/Columbia/Nuttida_Lab/Utah/ContextCategorizationTask/STIMULI/Context_Images/wall_1.png,original,ACORN,0.9436,,,,,,,,,1774375429.896363020
6,/Users/mehtaka/Desktop/Columbia/Nuttida_Lab/Utah/ContextCategorizationTask/STIMULI/Shapes/Shape_3_0.png,/Users/mehtaka/Desktop/Columbia/Nuttida_Lab/Utah/ContextCategorizationTask/STIMULI/Context_Images/sky2.png,/Users/mehtaka/Desktop/Columbia/Nuttida_Lab/Utah/ContextCategorizationTask/STIMULI/Context_Images/cinema_2.png,control_context,SKY,0.9525,,,,,,,,,1774375444.127559900
7,/Users/mehtaka/Desktop/Columbia/Nuttida_Lab/Utah/ContextCategorizationTask/STIMULI/Shapes/Shape_0_0.png,/Users/mehtaka/Desktop/Columbia/Nuttida_Lab/Utah/ContextCategorizationTask/STIMULI/Context_Images/cinema_1.png,/Users/mehtaka/Desktop/Columbia/Nuttida_Lab/Utah/ContextCategorizationTask/STIMULI/Context_Images/carrot_1.png,context_swapped,CINEMA,1.0746,,,,,,,,,1774375458.490456104
8,/Users/mehtaka/Desktop/Columbia/Nuttida_Lab/Utah/ContextCategorizationTask/STIMULI/Shapes/Shape_1_3.png,/Users/mehtaka/Desktop/Columbia/Nuttida_Lab/Utah/ContextCategorizationTask/STIMULI/Context_Images/pond1.png,/Users/mehtaka/Desktop/Columbia/Nuttida_Lab/Utah/ContextCategorizationTask/STIMULI/Context_Images/bookstore_1.png,original,POND,0.8509,,,,,,,,,1774375472.595947981
9,/Users/mehtaka/Desktop/Columbia/Nuttida_Lab/Utah/ContextCategorizationTask/STIMULI/Shapes/Shape_2_2.png,/Users/mehtaka/Desktop/Columbia/Nuttida_Lab/Utah/ContextCategorizationTask/STIMULI/Context_Images/cinema_2.png,/Users/mehtaka/Desktop/Columbia/Nuttida_Lab/Utah/ContextCategorizationTask/STIMULI/Context_Images/acorn2.png,control_context_swapped,CINEMA,0.6615,,,,,,,,,1774375486.531002998
10,/Users/mehtaka/Desktop/Columbia/Nuttida_Lab/Utah/ContextCategorizationTask/STIMULI/Shapes/Shape_1_0.png,/Users/mehtaka/Desktop/Columbia/Nuttida_Lab/Utah/ContextCategorizationTask/STIMULI/Context_Images/carrot_2.png,/Users/mehtaka/Desktop/Columbia/Nuttida_Lab/Utah/ContextCategorizationTask/STIMULI/Context_Images/bedroom2.png,control_context,CARROT,0.5179,,,,,,,,,1774375500.373184919
11,/Users/mehtaka/Desktop/Columbia/Nuttida_Lab/Utah/ContextCategorizationTask/STIMULI/Shapes/Shape_2_3.png,/Users/mehtaka/Desktop/Columbia/Nuttida_Lab/Utah/ContextCategorizationTask/STIMULI/Context_Images/wall_1.png,/Users/mehtaka/Desktop/Columbia/Nuttida_Lab/Utah/ContextCategorizationTask/STIMULI/Context_Images/acorn1.png,context_swapped,WALL,0.5862,,,,,,,,,1774375514.216650009
12,/Users/mehtaka/Desktop/Columbia/Nuttida_Lab/Utah/ContextCategorizationTask/STIMULI/Shapes/Shape_1_3.png,/Users/mehtaka/Desktop/Columbia/Nuttida_Lab/Utah/ContextCategorizationTask/STIMULI/Context_Images/bookstore_2.png,/Users/mehtaka/Desktop/Columbia/Nuttida_Lab/Utah/ContextCategorizationTask/STIMULI/Context_Images/pond2.png,control_context_swapped,BOOKSTORE,0.5102,,,,,,,,,1774375528.040832996
13,/Users/mehtaka/Desktop/Columbia/Nuttida_Lab/Utah/ContextCategorizationTask/STIMULI/Shapes/Shape_0_1.png,/Users/mehtaka/Desktop/Columbia/Nuttida_Lab/Utah/ContextCategorizationTask/STIMULI/Context_Images/carrot_1.png,/Users/mehtaka/Desktop/Columbia/Nuttida_Lab/Utah/ContextCategorizationTask/STIMULI/Context_Images/bookstore_1.png,original,CARROT,0.7942,,,,,,,,,1774375542.121700048
14,/Users/mehtaka/Desktop/Columbia/Nuttida_Lab/Utah/ContextCategorizationTask/STIMULI/Shapes/Shape_2_0.png,/Users/mehtaka/Desktop/Columbia/Nuttida_Lab/Utah/ContextCategorizationTask/STIMULI/Context_Images/wall_1.png,/Users/mehtaka/Desktop/Columbia/Nuttida_Lab/Utah/ContextCategorizationTask/STIMULI/Context_Images/sky1.png,context_swapped,WALL,0.6315,,,,,,,,,1774375556.021594048
15,/Users/mehtaka/Desktop/Columbia/Nuttida_Lab/Utah/ContextCategorizationTask/STIMULI/Shapes/Shape_0_2.png,/Users/mehtaka/Desktop/Columbia/Nuttida_Lab/Utah/ContextCategorizationTask/STIMULI/Context_Images/pond1.png,/Users/mehtaka/Desktop/Columbia/Nuttida_Lab/Utah/ContextCategorizationTask/STIMULI/Context_Images/bookstore_1.png,original,POND,0.5541,,,,,,,,,1774375569.870309114
16,/Users/mehtaka/Desktop/Columbia/Nuttida_Lab/Utah/ContextCategorizationTask/STIMULI/Shapes/Shape_2_3.png,/Users/mehtaka/Desktop/Columbia/Nuttida_Lab/Utah/ContextCategorizationTask/STIMULI/Context_Images/wall_2.png,/Users/mehtaka/Desktop/Columbia/Nuttida_Lab/Utah/ContextCategorizationTask/STIMULI/Context_Images/acorn2.png,control_context_swapped,WALL,0.6401,,,,,,,,,1774375583.769934177
17,/Users/mehtaka/Desktop/Columbia/Nuttida_Lab/Utah/ContextCategorizationTask/STIMULI/Shapes/Shape_1_2.png,/Users/mehtaka/Desktop/Columbia/Nuttida_Lab/Utah/ContextCategorizationTask/STIMULI/Context_Images/wall_2.png,/Users/mehtaka/Desktop/Columbia/Nuttida_Lab/Utah/ContextCategorizationTask/STIMULI/Context_Images/pond2.png,control_context_swapped,WALL,1.1840,,,,,,,,,1774375602.794552088
18,/Users/mehtaka/Desktop/Columbia/Nuttida_Lab/Utah/ContextCategorizationTask/STIMULI/Shapes/Shape_1_1.png,/Users/mehtaka/Desktop/Columbia/Nuttida_Lab/Utah/ContextCategorizationTask/STIMULI/Context_Images/carrot_1.png,/Users/mehtaka/Desktop/Columbia/Nuttida_Lab/Utah/ContextCategorizationTask/STIMULI/Context_Images/bookstore_1.png,original,CARROT,1.0261,,,,,,,,,1774375617.462127209
19,/Users/mehtaka/Desktop/Columbia/Nuttida_Lab/Utah/ContextCategorizationTask/STIMULI/Shapes/Shape_2_3.png,/Users/mehtaka/Desktop/Columbia/Nuttida_Lab/Utah/ContextCategorizationTask/STIMULI/Context_Images/acorn1.png,/Users/mehtaka/Desktop/Columbia/Nuttida_Lab/Utah/ContextCategorizationTask/STIMULI/Context_Images/wall_1.png,original,ACORN,1.0165,,,,,,,,,1774375631.762828112
20,/Users/mehtaka/Desktop/Columbia/Nuttida_Lab/Utah/ContextCategorizationTask/STIMULI/Shapes/Shape_1_1.png,/Users/mehtaka/Desktop/Columbia/Nuttida_Lab/Utah/ContextCategorizationTask/STIMULI/Context_Images/carrot_2.png,/Users/mehtaka/Desktop/Columbia/Nuttida_Lab/Utah/ContextCategorizationTask/STIMULI/Context_Images/bookstore_2.png,control_context,CARROT,2.3628,,,,,,,,,1774375647.390087843
21,/Users/mehtaka/Desktop/Columbia/Nuttida_Lab/Utah/ContextCategorizationTask/STIMULI/Shapes/Shape_0_3.png,/Users/mehtaka/Desktop/Columbia/Nuttida_Lab/Utah/ContextCategorizationTask/STIMULI/Context_Images/cinema_1.png,/Users/mehtaka/Desktop/Columbia/Nuttida_Lab/Utah/ContextCategorizationTask/STIMULI/Context_Images/pond1.png,context_swapped,CINEMA,1.3423,,,,,,,,,1774375661.998766184
22,/Users/mehtaka/Desktop/Columbia/Nuttida_Lab/Utah/ContextCategorizationTask/STIMULI/Shapes/Shape_0_1.png,/Users/mehtaka/Desktop/Columbia/Nuttida_Lab/Utah/ContextCategorizationTask/STIMULI/Context_Images/bookstore_1.png,/Users/mehtaka/Desktop/Columbia/Nuttida_Lab/Utah/ContextCategorizationTask/STIMULI/Context_Images/carrot_1.png,context_swapped,BOOKSTORE,1.0436,,,,,,,,,1774375676.299423933
23,/Users/mehtaka/Desktop/Columbia/Nuttida_Lab/Utah/ContextCategorizationTask/STIMULI/Shapes/Shape_2_3.png,/Users/mehtaka/Desktop/Columbia/Nuttida_Lab/Utah/ContextCategorizationTask/STIMULI/Context_Images/acorn2.png,/Users/mehtaka/Desktop/Columbia/Nuttida_Lab/Utah/ContextCategorizationTask/STIMULI/Context_Images/wall_2.png,control_context,WALL,1.3502,,,,,,,,,1774375690.937278032
24,/Users/mehtaka/Desktop/Columbia/Nuttida_Lab/Utah/ContextCategorizationTask/STIMULI/Shapes/Shape_3_2.png,/Users/mehtaka/Desktop/Columbia/Nuttida_Lab/Utah/ContextCategorizationTask/STIMULI/Context_Images/acorn2.png,/Users/mehtaka/Desktop/Columbia/Nuttida_Lab/Utah/ContextCategorizationTask/STIMULI/Context_Images/bedroom2.png,control_context,BEDROOM,1.0056,,,,,,,,,1774375705.170644045
25,/Users/mehtaka/Desktop/Columbia/Nuttida_Lab/Utah/ContextCategorizationTask/STIMULI/Shapes/Shape_1_1.png,/Users/mehtaka/Desktop/Columbia/Nuttida_Lab/Utah/ContextCategorizationTask/STIMULI/Context_Images/bookstore_2.png,/Users/mehtaka/Desktop/Columbia/Nuttida_Lab/Utah/ContextCategorizationTask/STIMULI/Context_Images/carrot_2.png,control_context_swapped,CARROT,1.0007,,,,,,,,,1774375719.436803102
26,/Users/mehtaka/Desktop/Columbia/Nuttida_Lab/Utah/ContextCategorizationTask/STIMULI/Shapes/Shape_3_0.png,/Users/mehtaka/Desktop/Columbia/Nuttida_Lab/Utah/ContextCategorizationTask/STIMULI/Context_Images/cinema_2.png,/Users/mehtaka/Desktop/Columbia/Nuttida_Lab/Utah/ContextCategorizationTask/STIMULI/Context_Images/sky2.png,control_context_swapped,SKY,0.8497,,,,,,,,,1774375733.562394857
27,/Users/mehtaka/Desktop/Columbia/Nuttida_Lab/Utah/ContextCategorizationTask/STIMULI/Shapes/Shape_1_3.png,/Users/mehtaka/Desktop/Columbia/Nuttida_Lab/Utah/ContextCategorizationTask/STIMULI/Context_Images/pond2.png,/Users/mehtaka/Desktop/Columbia/Nuttida_Lab/Utah/ContextCategorizationTask/STIMULI/Context_Images/bookstore_2.png,control_context,BOOKSTORE,0.7975,,,,,,,,,1774375747.659650087
28,/Users/mehtaka/Desktop/Columbia/Nuttida_Lab/Utah/ContextCategorizationTask/STIMULI/Shapes/Shape_3_2.png,/Users/mehtaka/Desktop/Columbia/Nuttida_Lab/Utah/ContextCategorizationTask/STIMULI/Context_Images/acorn1.png,/Users/mehtaka/Desktop/Columbia/Nuttida_Lab/Utah/ContextCategorizationTask/STIMULI/Context_Images/bedroom1.png,original,BEDROOM,0.6307,,,,,,,,,1774375761.512751102
29,/Users/mehtaka/Desktop/Columbia/Nuttida_Lab/Utah/ContextCategorizationTask/STIMULI/Shapes/Shape_1_1.png,/Users/mehtaka/Desktop/Columbia/Nuttida_Lab/Utah/ContextCategorizationTask/STIMULI/Context_Images/bookstore_1.png,/Users/mehtaka/Desktop/Columbia/Nuttida_Lab/Utah/ContextCategorizationTask/STIMULI/Context_Images/carrot_1.png,context_swapped,CARROT,0.8977,,,,,,,,,1774375775.723546982
30,/Users/mehtaka/Desktop/Columbia/Nuttida_Lab/Utah/ContextCategorizationTask/STIMULI/Shapes/Shape_1_2.png,/Users/mehtaka/Desktop/Columbia/Nuttida_Lab/Utah/ContextCategorizationTask/STIMULI/Context_Images/wall_1.png,/Users/mehtaka/Desktop/Columbia/Nuttida_Lab/Utah/ContextCategorizationTask/STIMULI/Context_Images/pond1.png,context_swapped,POND,0.9379,,,,,,,,,1774375789.961122990
31,/Users/mehtaka/Desktop/Columbia/Nuttida_Lab/Utah/ContextCategorizationTask/STIMULI/Shapes/Shape_2_0.png,/Users/mehtaka/Desktop/Columbia/Nuttida_Lab/Utah/ContextCategorizationTask/STIMULI/Context_Images/sky1.png,/Users/mehtaka/Desktop/Columbia/Nuttida_Lab/Utah/ContextCategorizationTask/STIMULI/Context_Images/wall_1.png,original,WALL,0.6081,,,,,,,,,1774375803.910693884
32,/Users/mehtaka/Desktop/Columbia/Nuttida_Lab/Utah/ContextCategorizationTask/STIMULI/Shapes/Shape_0_0.png,/Users/mehtaka/Desktop/Columbia/Nuttida_Lab/Utah/ContextCategorizationTask/STIMULI/Context_Images/carrot_1.png,/Users/mehtaka/Desktop/Columbia/Nuttida_Lab/Utah/ContextCategorizationTask/STIMULI/Context_Images/cinema_1.png,original,CINEMA,1.1613,,,,,,,,,1774375818.335308075
33,/Users/mehtaka/Desktop/Columbia/Nuttida_Lab/Utah/ContextCategorizationTask/STIMULI/Shapes/Shape_1_0.png,/Users/mehtaka/Desktop/Columbia/Nuttida_Lab/Utah/ContextCategorizationTask/STIMULI/Context_Images/carrot_1.png,/Users/mehtaka/Desktop/Columbia/Nuttida_Lab/Utah/ContextCategorizationTask/STIMULI/Context_Images/bedroom1.png,original,BEDROOM,0.9030,,,,,,,,,1774375834.079678059
34,/Users/mehtaka/Desktop/Columbia/Nuttida_Lab/Utah/ContextCategorizationTask/STIMULI/Shapes/Shape_0_2.png,/Users/mehtaka/Desktop/Columbia/Nuttida_Lab/Utah/ContextCategorizationTask/STIMULI/Context_Images/bookstore_2.png,/Users/mehtaka/Desktop/Columbia/Nuttida_Lab/Utah/ContextCategorizationTask/STIMULI/Context_Images/pond2.png,control_context_swapped,POND,2.0831,,,,,,,,,1774375849.396402836
35,/Users/mehtaka/Desktop/Columbia/Nuttida_Lab/Utah/ContextCategorizationTask/STIMULI/Shapes/Shape_2_0.png,/Users/mehtaka/Desktop/Columbia/Nuttida_Lab/Utah/ContextCategorizationTask/STIMULI/Context_Images/sky2.png,/Users/mehtaka/Desktop/Columbia/Nuttida_Lab/Utah/ContextCategorizationTask/STIMULI/Context_Images/wall_2.png,control_context,WALL,0.7550,,,,,,,,,1774375863.588292122
36,/Users/mehtaka/Desktop/Columbia/Nuttida_Lab/Utah/ContextCategorizationTask/STIMULI/Shapes/Shape_0_3.png,/Users/mehtaka/Desktop/Columbia/Nuttida_Lab/Utah/ContextCategorizationTask/STIMULI/Context_Images/cinema_2.png,/Users/mehtaka/Desktop/Columbia/Nuttida_Lab/Utah/ContextCategorizationTask/STIMULI/Context_Images/pond2.png,control_context_swapped,POND,0.7254,,,,,,,,,1774375877.580777884
37,/Users/mehtaka/Desktop/Columbia/Nuttida_Lab/Utah/ContextCategorizationTask/STIMULI/Shapes/Shape_0_2.png,/Users/mehtaka/Desktop/Columbia/Nuttida_Lab/Utah/ContextCategorizationTask/STIMULI/Context_Images/bookstore_1.png,/Users/mehtaka/Desktop/Columbia/Nuttida_Lab/Utah/ContextCategorizationTask/STIMULI/Context_Images/pond1.png,context_swapped,POND,0.4775,,,,,,,,,1774375891.285429955
38,/Users/mehtaka/Desktop/Columbia/Nuttida_Lab/Utah/ContextCategorizationTask/STIMULI/Shapes/Shape_2_1.png,/Users/mehtaka/Desktop/Columbia/Nuttida_Lab/Utah/ContextCategorizationTask/STIMULI/Context_Images/sky1.png,/Users/mehtaka/Desktop/Columbia/Nuttida_Lab/Utah/ContextCategorizationTask/STIMULI/Context_Images/bedroom1.png,original,BEDROOM,1.4172,,,,,,,,,1774375905.956923962
39,/Users/mehtaka/Desktop/Columbia/Nuttida_Lab/Utah/ContextCategorizationTask/STIMULI/Shapes/Shape_2_2.png,/Users/mehtaka/Desktop/Columbia/Nuttida_Lab/Utah/ContextCategorizationTask/STIMULI/Context_Images/cinema_1.png,/Users/mehtaka/Desktop/Columbia/Nuttida_Lab/Utah/ContextCategorizationTask/STIMULI/Context_Images/acorn1.png,context_swapped,ACORN,0.7827,,,,,,,,,1774375920.051017046
40,/Users/mehtaka/Desktop/Columbia/Nuttida_Lab/Utah/ContextCategorizationTask/STIMULI/Shapes/Shape_2_1.png,/Users/mehtaka/Desktop/Columbia/Nuttida_Lab/Utah/ContextCategorizationTask/STIMULI/Context_Images/bedroom2.png,/Users/mehtaka/Desktop/Columbia/Nuttida_Lab/Utah/ContextCategorizationTask/STIMULI/Context_Images/sky2.png,control_context_swapped,SKY,0.9792,,,,,,,,,1774375934.367567062
41,/Users/mehtaka/Desktop/Columbia/Nuttida_Lab/Utah/ContextCategorizationTask/STIMULI/Shapes/Shape_0_1.png,/Users/mehtaka/Desktop/Columbia/Nuttida_Lab/Utah/ContextCategorizationTask/STIMULI/Context_Images/carrot_2.png,/Users/mehtaka/Desktop/Columbia/Nuttida_Lab/Utah/ContextCategorizationTask/STIMULI/Context_Images/bookstore_2.png,control_context,BOOKSTORE,0.7131,,,,,,,,,1774375948.414954901
42,/Users/mehtaka/Desktop/Columbia/Nuttida_Lab/Utah/ContextCategorizationTask/STIMULI/Shapes/Shape_2_2.png,/Users/mehtaka/Desktop/Columbia/Nuttida_Lab/Utah/ContextCategorizationTask/STIMULI/Context_Images/acorn2.png,/Users/mehtaka/Desktop/Columbia/Nuttida_Lab/Utah/ContextCategorizationTask/STIMULI/Context_Images/cinema_2.png,control_context,CINEMA,0.5054,,,,,,,,,1774375962.195556164
43,/Users/mehtaka/Desktop/Columbia/Nuttida_Lab/Utah/ContextCategorizationTask/STIMULI/Shapes/Shape_1_2.png,/Users/mehtaka/Desktop/Columbia/Nuttida_Lab/Utah/ContextCategorizationTask/STIMULI/Context_Images/pond2.png,/Users/mehtaka/Desktop/Columbia/Nuttida_Lab/Utah/ContextCategorizationTask/STIMULI/Context_Images/wall_2.png,control_context,WALL,0.6271,,,,,,,,,1774375976.082767010
44,/Users/mehtaka/Desktop/Columbia/Nuttida_Lab/Utah/ContextCategorizationTask/STIMULI/Shapes/Shape_3_3.png,/Users/mehtaka/Desktop/Columbia/Nuttida_Lab/Utah/ContextCategorizationTask/STIMULI/Context_Images/wall_2.png,/Users/mehtaka/Desktop/Columbia/Nuttida_Lab/Utah/ContextCategorizationTask/STIMULI/Context_Images/acorn2.png,control_context_swapped,ACORN,0.4388,,,,,,,,,1774375989.805814981
45,/Users/mehtaka/Desktop/Columbia/Nuttida_Lab/Utah/ContextCategorizationTask/STIMULI/Shapes/Shape_3_1.png,/Users/mehtaka/Desktop/Columbia/Nuttida_Lab/Utah/ContextCategorizationTask/STIMULI/Context_Images/bedroom1.png,/Users/mehtaka/Desktop/Columbia/Nuttida_Lab/Utah/ContextCategorizationTask/STIMULI/Context_Images/sky1.png,context_swapped,SKY,0.4828,,,,,,,,,1774376003.523281813
46,/Users/mehtaka/Desktop/Columbia/Nuttida_Lab/Utah/ContextCategorizationTask/STIMULI/Shapes/Shape_3_2.png,/Users/mehtaka/Desktop/Columbia/Nuttida_Lab/Utah/ContextCategorizationTask/STIMULI/Context_Images/bedroom1.png,/Users/mehtaka/Desktop/Columbia/Nuttida_Lab/Utah/ContextCategorizationTask/STIMULI/Context_Images/acorn1.png,context_swapped,ACORN,0.7916,,,,,,,,,1774376017.534281015
47,/Users/mehtaka/Desktop/Columbia/Nuttida_Lab/Utah/ContextCategorizationTask/STIMULI/Shapes/Shape_3_3.png,/Users/mehtaka/Desktop/Columbia/Nuttida_Lab/Utah/ContextCategorizationTask/STIMULI/Context_Images/acorn2.png,/Users/mehtaka/Desktop/Columbia/Nuttida_Lab/Utah/ContextCategorizationTask/STIMULI/Context_Images/wall_2.png,control_context,WALL,1.0855,,,,,,,,,1774376031.903727055
48,/Users/mehtaka/Desktop/Columbia/Nuttida_Lab/Utah/ContextCategorizationTask/STIMULI/Shapes/Shape_2_0.png,/Users/mehtaka/Desktop/Columbia/Nuttida_Lab/Utah/ContextCategorizationTask/STIMULI/Context_Images/wall_2.png,/Users/mehtaka/Desktop/Columbia/Nuttida_Lab/Utah/ContextCategorizationTask/STIMULI/Context_Images/sky2.png,control_context_swapped,SKY,0.7974,,,,,,,,,1774376045.990278006
49,/Users/mehtaka/Desktop/Columbia/Nuttida_Lab/Utah/ContextCategorizationTask/STIMULI/Shapes/Shape_2_1.png,/Users/mehtaka/Desktop/Columbia/Nuttida_Lab/Utah/ContextCategorizationTask/STIMULI/Context_Images/sky2.png,/Users/mehtaka/Desktop/Columbia/Nuttida_Lab/Utah/ContextCategorizationTask/STIMULI/Context_Images/bedroom2.png,control_context,BEDROOM,0.5626,,,,,,,,,1774376066.937105894
50,/Users/mehtaka/Desktop/Columbia/Nuttida_Lab/Utah/ContextCategorizationTask/STIMULI/Shapes/Shape_3_3.png,/Users/mehtaka/Desktop/Columbia/Nuttida_Lab/Utah/ContextCategorizationTask/STIMULI/Context_Images/wall_1.png,/Users/mehtaka/Desktop/Columbia/Nuttida_Lab/Utah/ContextCategorizationTask/STIMULI/Context_Images/acorn1.png,context_swapped,ACORN,2.9663,,,,,,,,,1774376083.171687841
51,/Users/mehtaka/Desktop/Columbia/Nuttida_Lab/Utah/ContextCategorizationTask/STIMULI/Shapes/Shape_3_1.png,/Users/mehtaka/Desktop/Columbia/Nuttida_Lab/Utah/ContextCategorizationTask/STIMULI/Context_Images/bedroom2.png,/Users/mehtaka/Desktop/Columbia/Nuttida_Lab/Utah/ContextCategorizationTask/STIMULI/Context_Images/sky2.png,control_context_swapped,SKY,0.8875,,,,,,,,,1774376097.328501940
52,/Users/mehtaka/Desktop/Columbia/Nuttida_Lab/Utah/ContextCategorizationTask/STIMULI/Shapes/Shape_3_0.png,/Users/mehtaka/Desktop/Columbia/Nuttida_Lab/Utah/ContextCategorizationTask/STIMULI/Context_Images/sky1.png,/Users/mehtaka/Desktop/Columbia/Nuttida_Lab/Utah/ContextCategorizationTask/STIMULI/Context_Images/cinema_1.png,original,CINEMA,2.5488,,,,,,,,,1774376113.134312868
53,/Users/mehtaka/Desktop/Columbia/Nuttida_Lab/Utah/ContextCategorizationTask/STIMULI/Shapes/Shape_0_3.png,/Users/mehtaka/Desktop/Columbia/Nuttida_Lab/Utah/ContextCategorizationTask/STIMULI/Context_Images/pond2.png,/Users/mehtaka/Desktop/Columbia/Nuttida_Lab/Utah/ContextCategorizationTask/STIMULI/Context_Images/cinema_2.png,control_context,CINEMA,0.5932,,,,,,,,,1774376126.975997925
54,/Users/mehtaka/Desktop/Columbia/Nuttida_Lab/Utah/ContextCategorizationTask/STIMULI/Shapes/Shape_3_0.png,/Users/mehtaka/Desktop/Columbia/Nuttida_Lab/Utah/ContextCategorizationTask/STIMULI/Context_Images/cinema_1.png,/Users/mehtaka/Desktop/Columbia/Nuttida_Lab/Utah/ContextCategorizationTask/STIMULI/Context_Images/sky1.png,context_swapped,SKY,0.6553,,,,,,,,,1774376140.875941038
55,/Users/mehtaka/Desktop/Columbia/Nuttida_Lab/Utah/ContextCategorizationTask/STIMULI/Shapes/Shape_0_0.png,/Users/mehtaka/Desktop/Columbia/Nuttida_Lab/Utah/ContextCategorizationTask/STIMULI/Context_Images/cinema_2.png,/Users/mehtaka/Desktop/Columbia/Nuttida_Lab/Utah/ContextCategorizationTask/STIMULI/Context_Images/carrot_2.png,control_context_swapped,CARROT,0.9580,,,,,,,,,1774376155.047621012
56,/Users/mehtaka/Desktop/Columbia/Nuttida_Lab/Utah/ContextCategorizationTask/STIMULI/Shapes/Shape_0_2.png,/Users/mehtaka/Desktop/Columbia/Nuttida_Lab/Utah/ContextCategorizationTask/STIMULI/Context_Images/pond2.png,/Users/mehtaka/Desktop/Columbia/Nuttida_Lab/Utah/ContextCategorizationTask/STIMULI/Context_Images/bookstore_2.png,control_context,BOOKSTORE,0.8146,,,,,,,,,1774376169.116626978
57,/Users/mehtaka/Desktop/Columbia/Nuttida_Lab/Utah/ContextCategorizationTask/STIMULI/Shapes/Shape_1_3.png,/Users/mehtaka/Desktop/Columbia/Nuttida_Lab/Utah/ContextCategorizationTask/STIMULI/Context_Images/bookstore_1.png,/Users/mehtaka/Desktop/Columbia/Nuttida_Lab/Utah/ContextCategorizationTask/STIMULI/Context_Images/pond1.png,context_swapped,POND,0.8498,,,,,,,,,1774376183.223044157
58,/Users/mehtaka/Desktop/Columbia/Nuttida_Lab/Utah/ContextCategorizationTask/STIMULI/Shapes/Shape_1_2.png,/Users/mehtaka/Desktop/Columbia/Nuttida_Lab/Utah/ContextCategorizationTask/STIMULI/Context_Images/pond1.png,/Users/mehtaka/Desktop/Columbia/Nuttida_Lab/Utah/ContextCategorizationTask/STIMULI/Context_Images/wall_1.png,original,WALL,0.9944,,,,,,,,,1774376197.452971935
59,/Users/mehtaka/Desktop/Columbia/Nuttida_Lab/Utah/ContextCategorizationTask/STIMULI/Shapes/Shape_2_2.png,/Users/mehtaka/Desktop/Columbia/Nuttida_Lab/Utah/ContextCategorizationTask/STIMULI/Context_Images/acorn1.png,/Users/mehtaka/Desktop/Columbia/Nuttida_Lab/Utah/ContextCategorizationTask/STIMULI/Context_Images/cinema_1.png,original,CINEMA,0.8429,,,,,,,,,1774376211.546851158
60,/Users/mehtaka/Desktop/Columbia/Nuttida_Lab/Utah/ContextCategorizationTask/STIMULI/Shapes/Shape_1_0.png,/Users/mehtaka/Desktop/Columbia/Nuttida_Lab/Utah/ContextCategorizationTask/STIMULI/Context_Images/bedroom1.png,/Users/mehtaka/Desktop/Columbia/Nuttida_Lab/Utah/ContextCategorizationTask/STIMULI/Context_Images/carrot_1.png,context_swapped,CARROT,0.6061,,,,,,,,,1774376225.401866913
61,/Users/mehtaka/Desktop/Columbia/Nuttida_Lab/Utah/ContextCategorizationTask/STIMULI/Shapes/Shape_2_1.png,/Users/mehtaka/Desktop/Columbia/Nuttida_Lab/Utah/ContextCategorizationTask/STIMULI/Context_Images/bedroom1.png,/Users/mehtaka/Desktop/Columbia/Nuttida_Lab/Utah/ContextCategorizationTask/STIMULI/Context_Images/sky1.png,context_swapped,SKY,0.5003,,,,,,,,,1774376239.191380024
62,/Users/mehtaka/Desktop/Columbia/Nuttida_Lab/Utah/ContextCategorizationTask/STIMULI/Shapes/Shape_0_1.png,/Users/mehtaka/Desktop/Columbia/Nuttida_Lab/Utah/ContextCategorizationTask/STIMULI/Context_Images/bookstore_2.png,/Users/mehtaka/Desktop/Columbia/Nuttida_Lab/Utah/ContextCategorizationTask/STIMULI/Context_Images/carrot_2.png,control_context_swapped,CARROT,0.6622,,,,,,,,,1774376253.107990980
63,/Users/mehtaka/Desktop/Columbia/Nuttida_Lab/Utah/ContextCategorizationTask/STIMULI/Shapes/Shape_1_0.png,/Users/mehtaka/Desktop/Columbia/Nuttida_Lab/Utah/ContextCategorizationTask/STIMULI/Context_Images/bedroom2.png,/Users/mehtaka/Desktop/Columbia/Nuttida_Lab/Utah/ContextCategorizationTask/STIMULI/Context_Images/carrot_2.png,control_context_swapped,CARROT,2.0793,,,,,,,,,1774376268.493563890
64,/Users/mehtaka/Desktop/Columbia/Nuttida_Lab/Utah/ContextCategorizationTask/STIMULI/Shapes/Shape_0_3.png,/Users/mehtaka/Desktop/Columbia/Nuttida_Lab/Utah/ContextCategorizationTask/STIMULI/Context_Images/pond1.png,/Users/mehtaka/Desktop/Columbia/Nuttida_Lab/Utah/ContextCategorizationTask/STIMULI/Context_Images/cinema_1.png,original,CINEMA,0.6172,,,,,,,,,1774376282.422513008
